acc_sum,block,block_c,block_cond,con_img,correct,correct_response,datetime,endtime,face,jitter,line,project,response,response_time,row_sel,session_number,start_end,starttime,subject_id,task,task_vers,trial
0,prac,1,A,haborder.png,0,z,Fri Feb 07 2025 15:46:13 GMT-0600 (Central Standard Time),78118.0,CFD-WF-003-014-A.jpg,1600,solid,O,None,1514,10,1,3898.89999999851,74219.10000000149,7040,ATS,A,1
1,prac,1,A,haborder.png,1,z,Fri Feb 07 2025 15:46:13 GMT-0600 (Central Standard Time),80817.30000000447,CFD-BF-039-039-A.jpg,1200,solid,O,z,707,6,1,6598.20000000298,74219.10000000149,7040,ATS,A,2
2,prac,1,A,haborder.png,1,m,Fri Feb 07 2025 15:46:13 GMT-0600 (Central Standard Time),83966.30000000447,CFD-BM-017-052-HC.jpg,1700,solid,O,m,650,1,1,9747.20000000298,74219.10000000149,7040,ATS,A,3
3,prac,1,A,haborder.png,1,z,Fri Feb 07 2025 15:46:13 GMT-0600 (Central Standard Time),87294.20000000298,CFD-WM-013-015-A.jpg,1900,solid,O,z,534,8,1,13075.10000000149,74219.10000000149,7040,ATS,A,4
4,prac,1,A,haborder.png,1,z,Fri Feb 07 2025 15:46:13 GMT-0600 (Central Standard Time),90430.90000000596,CFD-BM-005-010-A.jpg,1600,solid,O,z,716,2,1,16211.80000000447,74219.10000000149,7040,ATS,A,5
5,prac,1,A,haborder.png,1,z,Fri Feb 07 2025 15:46:13 GMT-0600 (Central Standard Time),93013.40000000596,CFD-BF-023-013-A.jpg,1000,solid,O,z,785,4,1,18794.30000000447,74219.10000000149,7040,ATS,A,6
6,prac,1,A,haborder.png,1,m,Fri Feb 07 2025 15:46:13 GMT-0600 (Central Standard Time),96545.5,CFD-BF-028-020-HC.jpg,2000,solid,O,m,738,5,1,22326.39999999851,74219.10000000149,7040,ATS,A,7
7,prac,1,A,haborder.png,1,m,Fri Feb 07 2025 15:46:13 GMT-0600 (Central Standard Time),99478.0,CFD-WF-017-016-HC.jpg,1500,solid,O,m,642,11,1,25258.89999999851,74219.10000000149,7040,ATS,A,8
8,prac,1,A,haborder.png,1,m,Fri Feb 07 2025 15:46:13 GMT-0600 (Central Standard Time),102127.30000000447,CFD-WM-004-005-HC.jpg,1400,solid,O,m,458,7,1,27908.20000000298,74219.10000000149,7040,ATS,A,9
9,prac,1,A,haborder.png,1,m,Fri Feb 07 2025 15:46:13 GMT-0600 (Central Standard Time),105009.60000000149,CFD-BM-029-026-HC.jpg,1500,solid,O,m,587,3,1,30790.5,74219.10000000149,7040,ATS,A,10
10,prac,1,A,haborder.png,1,m,Fri Feb 07 2025 15:46:13 GMT-0600 (Central Standard Time),108108.80000000447,CFD-WM-006-013-HC.jpg,1700,solid,O,m,602,9,1,33889.70000000298,74219.10000000149,7040,ATS,A,11
11,prac,1,A,haborder.png,1,z,Fri Feb 07 2025 15:46:13 GMT-0600 (Central Standard Time),110474.60000000149,CFD-WF-019-015-A.jpg,1000,solid,O,z,580,12,1,36255.5,74219.10000000149,7040,ATS,A,12
0,prac,1,B,mfborder.png,0,z,Fri Feb 07 2025 15:46:13 GMT-0600 (Central Standard Time),143564.30000000447,CFD-WF-017-016-HC.jpg,1000,dash,O,None,1514,12,1,3299.0,140265.30000000447,7040,ATS,A,1
0,prac,1,B,mfborder.png,0,z,Fri Feb 07 2025 15:46:13 GMT-0600 (Central Standard Time),147362.80000000447,CFD-BF-010-005-HC.jpg,1500,dash,O,None,1515,3,1,7097.5,140265.30000000447,7040,ATS,A,2
0,prac,1,B,mfborder.png,0,m,Fri Feb 07 2025 15:46:13 GMT-0600 (Central Standard Time),151261.90000000596,CFD-BM-010-019-A.jpg,1600,dash,O,None,1514,2,1,10996.60000000149,140265.30000000447,7040,ATS,A,3
0,prac,1,B,mfborder.png,0,m,Fri Feb 07 2025 15:46:13 GMT-0600 (Central Standard Time),154760.5,CFD-WM-019-013-A.jpg,1200,dash,O,None,1514,6,1,14495.19999999553,140265.30000000447,7040,ATS,A,4
0,prac,1,B,mfborder.png,0,m,Fri Feb 07 2025 15:46:13 GMT-0600 (Central Standard Time),158792.90000000596,CFD-WM-013-015-A.jpg,1700,dash,O,None,1558,9,1,18527.60000000149,140265.30000000447,7040,ATS,A,5
0,prac,1,B,mfborder.png,0,m,Fri Feb 07 2025 15:46:13 GMT-0600 (Central Standard Time),162791.5,CFD-BM-029-026-HC.jpg,1700,dash,O,None,1514,1,1,22526.19999999553,140265.30000000447,7040,ATS,A,6
0,prac,1,B,mfborder.png,0,z,Fri Feb 07 2025 15:46:13 GMT-0600 (Central Standard Time),166490.40000000596,CFD-BF-028-020-HC.jpg,1400,dash,O,None,1514,7,1,26225.10000000149,140265.30000000447,7040,ATS,A,7
0,prac,1,B,mfborder.png,0,z,Fri Feb 07 2025 15:46:13 GMT-0600 (Central Standard Time),170289.20000000298,CFD-WF-003-014-A.jpg,1500,dash,O,None,1514,11,1,30023.89999999851,140265.30000000447,7040,ATS,A,8
0,prac,1,B,mfborder.png,0,m,Fri Feb 07 2025 15:46:13 GMT-0600 (Central Standard Time),174188.0,CFD-WM-006-013-HC.jpg,1600,dash,O,None,1515,10,1,33922.69999999553,140265.30000000447,7040,ATS,A,9
0,prac,1,B,mfborder.png,0,m,Fri Feb 07 2025 15:46:13 GMT-0600 (Central Standard Time),178486.70000000298,CFD-BM-005-010-A.jpg,2000,dash,O,None,1514,5,1,38221.39999999851,140265.30000000447,7040,ATS,A,10
0,prac,1,B,mfborder.png,0,z,Fri Feb 07 2025 15:46:13 GMT-0600 (Central Standard Time),182685.30000000447,CFD-WF-002-008-HC.jpg,1900,dash,O,None,1514,8,1,42420.0,140265.30000000447,7040,ATS,A,11
0,prac,1,B,mfborder.png,0,z,Fri Feb 07 2025 15:46:13 GMT-0600 (Central Standard Time),185984.20000000298,CFD-BF-023-013-A.jpg,1000,dash,O,None,1515,4,1,45718.89999999851,140265.30000000447,7040,ATS,A,12
0,prac,2,B,mfborder.png,0,m,Fri Feb 07 2025 15:46:13 GMT-0600 (Central Standard Time),295533.5,CFD-BM-029-026-HC.jpg,1700,dash,O,z,777,1,1,155268.19999999553,140265.30000000447,7040,ATS,A,1
1,prac,2,B,mfborder.png,1,z,Fri Feb 07 2025 15:46:13 GMT-0600 (Central Standard Time),299162.5,CFD-WF-003-014-A.jpg,1500,dash,O,z,1254,11,1,158897.19999999553,140265.30000000447,7040,ATS,A,2
2,prac,2,B,mfborder.png,1,m,Fri Feb 07 2025 15:46:13 GMT-0600 (Central Standard Time),302314.6000000015,CFD-BM-010-019-A.jpg,1600,dash,O,m,763,2,1,162049.29999999702,140265.30000000447,7040,ATS,A,3
3,prac,2,B,mfborder.png,1,z,Fri Feb 07 2025 15:46:13 GMT-0600 (Central Standard Time),304614.0,CFD-BF-023-013-A.jpg,1000,dash,O,z,510,4,1,164348.69999999553,140265.30000000447,7040,ATS,A,4
4,prac,2,B,mfborder.png,1,m,Fri Feb 07 2025 15:46:13 GMT-0600 (Central Standard Time),307479.700000003,CFD-WM-013-015-A.jpg,1700,dash,O,m,367,9,1,167214.3999999985,140265.30000000447,7040,ATS,A,5
5,prac,2,B,mfborder.png,1,z,Fri Feb 07 2025 15:46:13 GMT-0600 (Central Standard Time),310328.6000000015,CFD-BF-028-020-HC.jpg,1400,dash,O,z,648,7,1,170063.29999999702,140265.30000000447,7040,ATS,A,6
6,prac,2,B,mfborder.png,1,m,Fri Feb 07 2025 15:46:13 GMT-0600 (Central Standard Time),312861.30000000447,CFD-WM-019-013-A.jpg,1200,dash,O,m,544,6,1,172596.0,140265.30000000447,7040,ATS,A,7
6,prac,2,B,mfborder.png,0,m,Fri Feb 07 2025 15:46:13 GMT-0600 (Central Standard Time),316060.5,CFD-WM-006-013-HC.jpg,1600,dash,O,z,804,10,1,175795.19999999553,140265.30000000447,7040,ATS,A,8
7,prac,2,B,mfborder.png,1,z,Fri Feb 07 2025 15:46:13 GMT-0600 (Central Standard Time),318442.80000000447,CFD-WF-017-016-HC.jpg,1000,dash,O,z,587,12,1,178177.5,140265.30000000447,7040,ATS,A,9
8,prac,2,B,mfborder.png,1,m,Fri Feb 07 2025 15:46:13 GMT-0600 (Central Standard Time),321842.0,CFD-BM-005-010-A.jpg,2000,dash,O,m,613,5,1,181576.69999999553,140265.30000000447,7040,ATS,A,10
9,prac,2,B,mfborder.png,1,z,Fri Feb 07 2025 15:46:13 GMT-0600 (Central Standard Time),325041.1000000015,CFD-WF-002-008-HC.jpg,1900,dash,O,z,506,8,1,184775.79999999702,140265.30000000447,7040,ATS,A,11
10,prac,2,B,mfborder.png,1,z,Fri Feb 07 2025 15:46:13 GMT-0600 (Central Standard Time),327756.90000000596,CFD-BF-010-005-HC.jpg,1500,dash,O,z,427,3,1,187491.6000000015,140265.30000000447,7040,ATS,A,12
1,test,1,A,haborder.png,1,z,Fri Feb 07 2025 15:46:13 GMT-0600 (Central Standard Time),359829.90000000596,CFD-BF-023-013-A.jpg,1000,solid,O,z,569,4,1,1599.2000000029802,358230.700000003,7040,ATS,A,1
2,test,1,A,haborder.png,1,m,Fri Feb 07 2025 15:46:13 GMT-0600 (Central Standard Time),361696.1000000015,CFD-WM-004-005-HC.jpg,1400,solid,O,m,442,7,1,3465.39999999851,358230.700000003,7040,ATS,A,2
3,test,1,A,haborder.png,1,z,Fri Feb 07 2025 15:46:13 GMT-0600 (Central Standard Time),363212.30000000447,CFD-WF-019-015-A.jpg,1000,solid,O,z,489,12,1,4981.60000000149,358230.700000003,7040,ATS,A,3
4,test,1,A,haborder.png,1,m,Fri Feb 07 2025 15:46:13 GMT-0600 (Central Standard Time),365444.90000000596,CFD-WM-006-013-HC.jpg,1700,solid,O,m,504,9,1,7214.20000000298,358230.700000003,7040,ATS,A,4
4,test,1,A,haborder.png,0,m,Fri Feb 07 2025 15:46:13 GMT-0600 (Central Standard Time),367494.40000000596,CFD-WF-017-016-HC.jpg,1500,solid,O,z,520,11,1,9263.70000000298,358230.700000003,7040,ATS,A,5
5,test,1,A,haborder.png,1,m,Fri Feb 07 2025 15:46:13 GMT-0600 (Central Standard Time),370509.90000000596,CFD-WM-006-013-HC.jpg,1700,solid,O,m,1287,9,1,12279.20000000298,358230.700000003,7040,ATS,A,6
6,test,1,A,haborder.png,1,z,Fri Feb 07 2025 15:46:13 GMT-0600 (Central Standard Time),372276.0,CFD-BF-039-039-A.jpg,1200,solid,O,z,545,6,1,14045.29999999702,358230.700000003,7040,ATS,A,7
7,test,1,A,haborder.png,1,z,Fri Feb 07 2025 15:46:13 GMT-0600 (Central Standard Time),373845.5,CFD-WF-019-015-A.jpg,1000,solid,O,z,533,12,1,15614.79999999702,358230.700000003,7040,ATS,A,8
8,test,1,A,haborder.png,1,z,Fri Feb 07 2025 15:46:13 GMT-0600 (Central Standard Time),377207.80000000447,CFD-WM-013-015-A.jpg,1900,solid,O,z,1443,8,1,18977.10000000149,358230.700000003,7040,ATS,A,9
9,test,1,A,haborder.png,1,z,Fri Feb 07 2025 15:46:13 GMT-0600 (Central Standard Time),379090.700000003,CFD-BF-039-039-A.jpg,1200,solid,O,z,649,6,1,20860.0,358230.700000003,7040,ATS,A,10
10,test,1,A,haborder.png,1,m,Fri Feb 07 2025 15:46:13 GMT-0600 (Central Standard Time),381656.30000000447,CFD-BF-028-020-HC.jpg,2000,solid,O,m,542,5,1,23425.60000000149,358230.700000003,7040,ATS,A,11
11,test,1,A,haborder.png,1,m,Fri Feb 07 2025 15:46:13 GMT-0600 (Central Standard Time),384139.0,CFD-BM-017-052-HC.jpg,1700,solid,O,m,756,1,1,25908.29999999702,358230.700000003,7040,ATS,A,12
12,test,1,A,haborder.png,1,m,Fri Feb 07 2025 15:46:13 GMT-0600 (Central Standard Time),386206.200000003,CFD-WM-004-005-HC.jpg,1400,solid,O,m,646,7,1,27975.5,358230.700000003,7040,ATS,A,13
13,test,1,A,haborder.png,1,z,Fri Feb 07 2025 15:46:13 GMT-0600 (Central Standard Time),388371.1000000015,CFD-BM-005-010-A.jpg,1600,solid,O,z,532,2,1,30140.39999999851,358230.700000003,7040,ATS,A,14
14,test,1,A,haborder.png,1,z,Fri Feb 07 2025 15:46:13 GMT-0600 (Central Standard Time),389971.0,CFD-BF-023-013-A.jpg,1000,solid,O,z,582,4,1,31740.29999999702,358230.700000003,7040,ATS,A,15
15,test,1,A,haborder.png,1,m,Fri Feb 07 2025 15:46:13 GMT-0600 (Central Standard Time),392353.1000000015,CFD-BM-017-052-HC.jpg,1700,solid,O,m,650,1,1,34122.39999999851,358230.700000003,7040,ATS,A,16
15,test,1,A,haborder.png,0,m,Fri Feb 07 2025 15:46:13 GMT-0600 (Central Standard Time),394902.30000000447,CFD-BF-028-020-HC.jpg,2000,solid,O,z,520,5,1,36671.60000000149,358230.700000003,7040,ATS,A,17
16,test,1,A,haborder.png,1,m,Fri Feb 07 2025 15:46:13 GMT-0600 (Central Standard Time),397034.90000000596,CFD-BM-029-026-HC.jpg,1500,solid,O,m,598,3,1,38804.20000000298,358230.700000003,7040,ATS,A,18
17,test,1,A,haborder.png,1,m,Fri Feb 07 2025 15:46:13 GMT-0600 (Central Standard Time),399034.6000000015,CFD-WF-017-016-HC.jpg,1500,solid,O,m,466,11,1,40803.89999999851,358230.700000003,7040,ATS,A,19
18,test,1,A,haborder.png,1,z,Fri Feb 07 2025 15:46:13 GMT-0600 (Central Standard Time),401816.90000000596,CFD-WM-013-015-A.jpg,1900,solid,O,z,851,8,1,43586.20000000298,358230.700000003,7040,ATS,A,20
19,test,1,A,haborder.png,1,z,Fri Feb 07 2025 15:46:13 GMT-0600 (Central Standard Time),403883.0,CFD-WF-003-014-A.jpg,1600,solid,O,z,448,10,1,45652.29999999702,358230.700000003,7040,ATS,A,21
19,test,1,A,haborder.png,0,z,Fri Feb 07 2025 15:46:13 GMT-0600 (Central Standard Time),405982.200000003,CFD-BM-005-010-A.jpg,1600,solid,O,m,478,2,1,47751.5,358230.700000003,7040,ATS,A,22
20,test,1,A,haborder.png,1,z,Fri Feb 07 2025 15:46:13 GMT-0600 (Central Standard Time),408198.1000000015,CFD-WF-003-014-A.jpg,1600,solid,O,z,585,10,1,49967.39999999851,358230.700000003,7040,ATS,A,23
21,test,1,A,haborder.png,1,m,Fri Feb 07 2025 15:46:13 GMT-0600 (Central Standard Time),410280.90000000596,CFD-BM-029-026-HC.jpg,1500,solid,O,m,559,3,1,52050.20000000298,358230.700000003,7040,ATS,A,24
1,test,1,B,mfborder.png,1,m,Fri Feb 07 2025 15:46:13 GMT-0600 (Central Standard Time),438138.90000000596,CFD-BM-010-019-A.jpg,1600,dash,O,m,531,2,1,2149.3000000044703,435989.6000000015,7040,ATS,A,1
2,test,1,B,mfborder.png,1,m,Fri Feb 07 2025 15:46:13 GMT-0600 (Central Standard Time),440271.5,CFD-WM-006-013-HC.jpg,1600,dash,O,m,502,10,1,4281.89999999851,435989.6000000015,7040,ATS,A,2
3,test,1,B,mfborder.png,1,z,Fri Feb 07 2025 15:46:13 GMT-0600 (Central Standard Time),441787.700000003,CFD-WF-017-016-HC.jpg,1000,dash,O,z,489,12,1,5798.10000000149,435989.6000000015,7040,ATS,A,3
4,test,1,B,mfborder.png,1,m,Fri Feb 07 2025 15:46:13 GMT-0600 (Central Standard Time),443853.700000003,CFD-WM-006-013-HC.jpg,1600,dash,O,m,445,10,1,7864.10000000149,435989.6000000015,7040,ATS,A,4
5,test,1,B,mfborder.png,1,m,Fri Feb 07 2025 15:46:13 GMT-0600 (Central Standard Time),446369.700000003,CFD-BM-005-010-A.jpg,2000,dash,O,m,483,5,1,10380.10000000149,435989.6000000015,7040,ATS,A,5
6,test,1,B,mfborder.png,1,m,Fri Feb 07 2025 15:46:13 GMT-0600 (Central Standard Time),448818.80000000447,CFD-BM-005-010-A.jpg,2000,dash,O,m,415,5,1,12829.20000000298,435989.6000000015,7040,ATS,A,6
7,test,1,B,mfborder.png,1,z,Fri Feb 07 2025 15:46:13 GMT-0600 (Central Standard Time),450335.0,CFD-WF-017-016-HC.jpg,1000,dash,O,z,494,12,1,14345.39999999851,435989.6000000015,7040,ATS,A,7
8,test,1,B,mfborder.png,1,m,Fri Feb 07 2025 15:46:13 GMT-0600 (Central Standard Time),452051.0,CFD-WM-019-013-A.jpg,1200,dash,O,m,481,6,1,16061.39999999851,435989.6000000015,7040,ATS,A,8
9,test,1,B,mfborder.png,1,z,Fri Feb 07 2025 15:46:13 GMT-0600 (Central Standard Time),454037.40000000596,CFD-BF-010-005-HC.jpg,1500,dash,O,z,448,3,1,18047.80000000447,435989.6000000015,7040,ATS,A,9
10,test,1,B,mfborder.png,1,m,Fri Feb 07 2025 15:46:13 GMT-0600 (Central Standard Time),456216.6000000015,CFD-BM-029-026-HC.jpg,1700,dash,O,m,459,1,1,20227.0,435989.6000000015,7040,ATS,A,10
11,test,1,B,mfborder.png,1,z,Fri Feb 07 2025 15:46:13 GMT-0600 (Central Standard Time),458282.6000000015,CFD-WF-003-014-A.jpg,1500,dash,O,z,532,11,1,22293.0,435989.6000000015,7040,ATS,A,11
12,test,1,B,mfborder.png,1,z,Fri Feb 07 2025 15:46:13 GMT-0600 (Central Standard Time),460248.6000000015,CFD-BF-010-005-HC.jpg,1500,dash,O,z,434,3,1,24259.0,435989.6000000015,7040,ATS,A,12
13,test,1,B,mfborder.png,1,m,Fri Feb 07 2025 15:46:13 GMT-0600 (Central Standard Time),461914.80000000447,CFD-WM-019-013-A.jpg,1200,dash,O,m,432,6,1,25925.20000000298,435989.6000000015,7040,ATS,A,13
14,test,1,B,mfborder.png,1,z,Fri Feb 07 2025 15:46:13 GMT-0600 (Central Standard Time),463959.0,CFD-BF-028-020-HC.jpg,1400,dash,O,z,622,7,1,27969.39999999851,435989.6000000015,7040,ATS,A,14
15,test,1,B,mfborder.png,1,z,Fri Feb 07 2025 15:46:13 GMT-0600 (Central Standard Time),466180.1000000015,CFD-BF-028-020-HC.jpg,1400,dash,O,z,789,7,1,30190.5,435989.6000000015,7040,ATS,A,15
16,test,1,B,mfborder.png,1,z,Fri Feb 07 2025 15:46:13 GMT-0600 (Central Standard Time),468995.5,CFD-WF-002-008-HC.jpg,1900,dash,O,z,897,8,1,33005.89999999851,435989.6000000015,7040,ATS,A,16
17,test,1,B,mfborder.png,1,m,Fri Feb 07 2025 15:46:13 GMT-0600 (Central Standard Time),471445.1000000015,CFD-BM-029-026-HC.jpg,1700,dash,O,m,729,1,1,35455.5,435989.6000000015,7040,ATS,A,17
18,test,1,B,mfborder.png,1,m,Fri Feb 07 2025 15:46:13 GMT-0600 (Central Standard Time),473777.6000000015,CFD-WM-013-015-A.jpg,1700,dash,O,m,599,9,1,37788.0,435989.6000000015,7040,ATS,A,18
18,test,1,B,mfborder.png,0,z,Fri Feb 07 2025 15:46:13 GMT-0600 (Central Standard Time),477210.1000000015,CFD-WF-002-008-HC.jpg,1900,dash,O,None,1514,8,1,41220.5,435989.6000000015,7040,ATS,A,19
19,test,1,B,mfborder.png,1,m,Fri Feb 07 2025 15:46:13 GMT-0600 (Central Standard Time),479392.6000000015,CFD-BM-010-019-A.jpg,1600,dash,O,m,559,2,1,43403.0,435989.6000000015,7040,ATS,A,20
20,test,1,B,mfborder.png,1,z,Fri Feb 07 2025 15:46:13 GMT-0600 (Central Standard Time),481008.80000000447,CFD-BF-023-013-A.jpg,1000,dash,O,z,583,4,1,45019.20000000298,435989.6000000015,7040,ATS,A,21
21,test,1,B,mfborder.png,1,m,Fri Feb 07 2025 15:46:13 GMT-0600 (Central Standard Time),483174.80000000447,CFD-WM-013-015-A.jpg,1700,dash,O,m,444,9,1,47185.20000000298,435989.6000000015,7040,ATS,A,22
22,test,1,B,mfborder.png,1,z,Fri Feb 07 2025 15:46:13 GMT-0600 (Central Standard Time),484757.700000003,CFD-BF-023-013-A.jpg,1000,dash,O,z,554,4,1,48768.10000000149,435989.6000000015,7040,ATS,A,23
23,test,1,B,mfborder.png,1,z,Fri Feb 07 2025 15:46:13 GMT-0600 (Central Standard Time),486756.90000000596,CFD-WF-003-014-A.jpg,1500,dash,O,z,471,11,1,50767.30000000447,435989.6000000015,7040,ATS,A,24
1,prac,1,C,haborder.png,1,z,Fri Feb 07 2025 15:46:13 GMT-0600 (Central Standard Time),544639.3000000045,CFD-BF-039-039-A.jpg,1700,solid,O,z,725,8,1,3216.2000000029802,541423.1000000015,7040,ATS,A,1
2,prac,1,C,mfborder.png,1,m,Fri Feb 07 2025 15:46:13 GMT-0600 (Central Standard Time),548071.3000000045,CFD-BM-017-052-HC.jpg,2000,solid,O,m,634,4,1,6648.20000000298,541423.1000000015,7040,ATS,A,2
2,prac,1,C,mfborder.png,0,z,Fri Feb 07 2025 15:46:13 GMT-0600 (Central Standard Time),551819.900000006,CFD-WF-017-016-HC.jpg,1600,dash,O,m,1362,1,1,10396.80000000447,541423.1000000015,7040,ATS,A,3
3,prac,1,C,mfborder.png,1,m,Fri Feb 07 2025 15:46:13 GMT-0600 (Central Standard Time),554585.8000000045,CFD-BM-005-010-A.jpg,1200,dash,O,m,773,5,1,13162.70000000298,541423.1000000015,7040,ATS,A,4
4,prac,1,C,haborder.png,1,m,Fri Feb 07 2025 15:46:13 GMT-0600 (Central Standard Time),557984.6000000015,CFD-BM-029-026-HC.jpg,1500,solid,O,m,1107,10,1,16561.5,541423.1000000015,7040,ATS,A,5
4,prac,1,C,mfborder.png,0,m,Fri Feb 07 2025 15:46:13 GMT-0600 (Central Standard Time),561983.5,CFD-WM-013-015-A.jpg,1700,solid,O,None,1514,6,1,20560.39999999851,541423.1000000015,7040,ATS,A,6
5,prac,1,C,haborder.png,1,m,Fri Feb 07 2025 15:46:13 GMT-0600 (Central Standard Time),564982.6000000015,CFD-WM-004-005-HC.jpg,1400,solid,O,m,801,12,1,23559.5,541423.1000000015,7040,ATS,A,7
6,prac,1,C,mfborder.png,1,z,Fri Feb 07 2025 15:46:13 GMT-0600 (Central Standard Time),567615.5,CFD-BF-028-020-HC.jpg,1000,dash,O,z,842,3,1,26192.39999999851,541423.1000000015,7040,ATS,A,8
7,prac,1,C,mfborder.png,1,z,Fri Feb 07 2025 15:46:13 GMT-0600 (Central Standard Time),570864.0,CFD-WF-019-015-A.jpg,1500,solid,O,z,950,2,1,29440.89999999851,541423.1000000015,7040,ATS,A,9
7,prac,1,C,haborder.png,0,z,Fri Feb 07 2025 15:46:13 GMT-0600 (Central Standard Time),574029.8000000045,CFD-WF-003-014-A.jpg,1600,dash,O,m,777,9,1,32606.70000000298,541423.1000000015,7040,ATS,A,10
8,prac,1,C,haborder.png,1,z,Fri Feb 07 2025 15:46:13 GMT-0600 (Central Standard Time),577995.200000003,CFD-BF-023-013-A.jpg,1900,dash,O,z,1271,7,1,36572.10000000149,541423.1000000015,7040,ATS,A,11
9,prac,1,C,haborder.png,1,m,Fri Feb 07 2025 15:46:13 GMT-0600 (Central Standard Time),580811.200000003,CFD-WM-004-005-HC.jpg,1000,dash,O,m,1022,11,1,39388.10000000149,541423.1000000015,7040,ATS,A,12
1,test,1,C,haborder.png,1,z,Fri Feb 07 2025 15:46:13 GMT-0600 (Central Standard Time),607219.200000003,CFD-BM-010-019-A.jpg,1700,solid,O,z,1081,9,1,2815.7000000029802,604403.5,7040,ATS,A,1
2,test,1,C,mfborder.png,1,m,Fri Feb 07 2025 15:46:13 GMT-0600 (Central Standard Time),609202.0,CFD-BM-029-026-HC.jpg,1200,dash,O,m,757,6,1,4798.5,604403.5,7040,ATS,A,2
3,test,1,C,mfborder.png,1,z,Fri Feb 07 2025 15:46:13 GMT-0600 (Central Standard Time),611334.700000003,CFD-WF-003-014-A.jpg,1500,dash,O,z,610,3,1,6931.20000000298,604403.5,7040,ATS,A,3
4,test,1,C,haborder.png,1,m,Fri Feb 07 2025 15:46:13 GMT-0600 (Central Standard Time),613883.8000000045,CFD-WF-002-008-HC.jpg,1500,solid,O,m,1022,11,1,9480.30000000447,604403.5,7040,ATS,A,4
5,test,1,C,haborder.png,1,m,Fri Feb 07 2025 15:46:13 GMT-0600 (Central Standard Time),615833.5,CFD-WF-017-016-HC.jpg,1000,solid,O,m,925,12,1,11430.0,604403.5,7040,ATS,A,5
5,test,1,C,mfborder.png,0,z,Fri Feb 07 2025 15:46:13 GMT-0600 (Central Standard Time),618965.900000006,CFD-BF-023-013-A.jpg,1600,dash,O,None,1514,2,1,14562.40000000596,604403.5,7040,ATS,A,6
5,test,1,C,haborder.png,0,m,Fri Feb 07 2025 15:46:13 GMT-0600 (Central Standard Time),621498.200000003,CFD-WF-017-016-HC.jpg,1000,solid,O,None,1514,12,1,17094.70000000298,604403.5,7040,ATS,A,7
6,test,1,C,mfborder.png,1,m,Fri Feb 07 2025 15:46:13 GMT-0600 (Central Standard Time),624097.5,CFD-WM-019-013-A.jpg,2000,dash,O,m,575,5,1,19694.0,604403.5,7040,ATS,A,8
7,test,1,C,mfborder.png,1,m,Fri Feb 07 2025 15:46:13 GMT-0600 (Central Standard Time),625780.1000000015,CFD-WM-006-013-HC.jpg,1000,dash,O,m,655,4,1,21376.60000000149,604403.5,7040,ATS,A,9
7,test,1,C,haborder.png,0,z,Fri Feb 07 2025 15:46:13 GMT-0600 (Central Standard Time),628013.1000000015,CFD-BM-010-019-A.jpg,1700,solid,O,m,505,9,1,23609.60000000149,604403.5,7040,ATS,A,10
8,test,1,C,mfborder.png,1,z,Fri Feb 07 2025 15:46:13 GMT-0600 (Central Standard Time),630378.8000000045,CFD-BF-010-005-HC.jpg,1700,dash,O,z,640,1,1,25975.30000000447,604403.5,7040,ATS,A,11
9,test,1,C,haborder.png,1,z,Fri Feb 07 2025 15:46:13 GMT-0600 (Central Standard Time),633311.3000000045,CFD-BM-005-010-A.jpg,1900,solid,O,z,1002,8,1,28907.80000000447,604403.5,7040,ATS,A,12
10,test,1,C,mfborder.png,1,m,Fri Feb 07 2025 15:46:13 GMT-0600 (Central Standard Time),635627.1000000015,CFD-WM-006-013-HC.jpg,1000,dash,O,m,1289,4,1,31223.60000000149,604403.5,7040,ATS,A,13
11,test,1,C,haborder.png,1,z,Fri Feb 07 2025 15:46:13 GMT-0600 (Central Standard Time),638009.8000000045,CFD-WM-013-015-A.jpg,1400,solid,O,z,957,7,1,33606.30000000447,604403.5,7040,ATS,A,14
12,test,1,C,mfborder.png,1,z,Fri Feb 07 2025 15:46:13 GMT-0600 (Central Standard Time),640375.8000000045,CFD-BF-010-005-HC.jpg,1700,dash,O,z,643,1,1,35972.30000000447,604403.5,7040,ATS,A,15
13,test,1,C,haborder.png,1,z,Fri Feb 07 2025 15:46:13 GMT-0600 (Central Standard Time),642791.5,CFD-WM-013-015-A.jpg,1400,solid,O,z,985,7,1,38388.0,604403.5,7040,ATS,A,16
14,test,1,C,mfborder.png,1,z,Fri Feb 07 2025 15:46:13 GMT-0600 (Central Standard Time),645057.5,CFD-BF-023-013-A.jpg,1600,dash,O,z,641,2,1,40654.0,604403.5,7040,ATS,A,17
15,test,1,C,haborder.png,1,m,Fri Feb 07 2025 15:46:13 GMT-0600 (Central Standard Time),647673.3000000045,CFD-BF-028-020-HC.jpg,1600,solid,O,m,983,10,1,43269.80000000447,604403.5,7040,ATS,A,18
16,test,1,C,haborder.png,1,m,Fri Feb 07 2025 15:46:13 GMT-0600 (Central Standard Time),650372.400000006,CFD-BF-028-020-HC.jpg,1600,solid,O,m,1079,10,1,45968.90000000596,604403.5,7040,ATS,A,19
16,test,1,C,haborder.png,0,m,Fri Feb 07 2025 15:46:13 GMT-0600 (Central Standard Time),653404.900000006,CFD-WF-002-008-HC.jpg,1500,solid,O,None,1514,11,1,49001.40000000596,604403.5,7040,ATS,A,20
17,test,1,C,mfborder.png,1,m,Fri Feb 07 2025 15:46:13 GMT-0600 (Central Standard Time),655621.0,CFD-BM-029-026-HC.jpg,1200,dash,O,m,996,6,1,51217.5,604403.5,7040,ATS,A,21
17,test,1,C,mfborder.png,0,z,Fri Feb 07 2025 15:46:13 GMT-0600 (Central Standard Time),657620.200000003,CFD-WF-003-014-A.jpg,1500,dash,O,m,480,3,1,53216.70000000298,604403.5,7040,ATS,A,22
18,test,1,C,mfborder.png,1,m,Fri Feb 07 2025 15:46:13 GMT-0600 (Central Standard Time),660352.900000006,CFD-WM-019-013-A.jpg,2000,dash,O,m,701,5,1,55949.40000000596,604403.5,7040,ATS,A,23
19,test,1,C,haborder.png,1,z,Fri Feb 07 2025 15:46:13 GMT-0600 (Central Standard Time),663151.8000000045,CFD-BM-005-010-A.jpg,1900,solid,O,z,876,8,1,58748.30000000447,604403.5,7040,ATS,A,24
1,test,2,C,haborder.png,1,z,Fri Feb 07 2025 15:46:13 GMT-0600 (Central Standard Time),683012.200000003,CFD-WF-003-014-A.jpg,1700,solid,O,z,1052,9,1,2782.2999999970198,680229.900000006,7040,ATS,A,1
1,test,2,C,mfborder.png,0,z,Fri Feb 07 2025 15:46:13 GMT-0600 (Central Standard Time),685911.5,CFD-WF-017-016-HC.jpg,1700,dash,O,m,1172,1,1,5681.5999999940395,680229.900000006,7040,ATS,A,2
1,test,2,C,haborder.png,0,z,Fri Feb 07 2025 15:46:13 GMT-0600 (Central Standard Time),688727.0,CFD-BF-039-039-A.jpg,1900,solid,O,m,885,8,1,8497.09999999404,680229.900000006,7040,ATS,A,3
2,test,2,C,mfborder.png,1,m,Fri Feb 07 2025 15:46:13 GMT-0600 (Central Standard Time),690726.700000003,CFD-BM-017-052-HC.jpg,1000,dash,O,m,978,4,1,10496.79999999702,680229.900000006,7040,ATS,A,4
3,test,2,C,mfborder.png,1,m,Fri Feb 07 2025 15:46:13 GMT-0600 (Central Standard Time),692509.400000006,CFD-WM-013-015-A.jpg,1200,dash,O,m,554,6,1,12279.5,680229.900000006,7040,ATS,A,5
4,test,2,C,haborder.png,1,m,Fri Feb 07 2025 15:46:13 GMT-0600 (Central Standard Time),694442.0,CFD-WM-004-005-HC.jpg,1000,solid,O,m,899,12,1,14212.09999999404,680229.900000006,7040,ATS,A,6
5,test,2,C,haborder.png,1,z,Fri Feb 07 2025 15:46:13 GMT-0600 (Central Standard Time),697124.8000000045,CFD-BF-039-039-A.jpg,1900,solid,O,z,763,8,1,16894.89999999851,680229.900000006,7040,ATS,A,7
6,test,2,C,haborder.png,1,m,Fri Feb 07 2025 15:46:13 GMT-0600 (Central Standard Time),699618.200000003,CFD-WM-004-005-HC.jpg,1500,solid,O,m,975,11,1,19388.29999999702,680229.900000006,7040,ATS,A,8
7,test,2,C,mfborder.png,1,z,Fri Feb 07 2025 15:46:13 GMT-0600 (Central Standard Time),702056.5,CFD-WF-019-015-A.jpg,1600,dash,O,z,801,2,1,21826.59999999404,680229.900000006,7040,ATS,A,9
8,test,2,C,mfborder.png,1,m,Fri Feb 07 2025 15:46:13 GMT-0600 (Central Standard Time),703672.6000000015,CFD-BM-017-052-HC.jpg,1000,dash,O,m,592,4,1,23442.69999999553,680229.900000006,7040,ATS,A,10
9,test,2,C,haborder.png,1,m,Fri Feb 07 2025 15:46:13 GMT-0600 (Central Standard Time),705971.6000000015,CFD-BM-029-026-HC.jpg,1600,solid,O,m,672,10,1,25741.69999999553,680229.900000006,7040,ATS,A,11
10,test,2,C,haborder.png,1,m,Fri Feb 07 2025 15:46:13 GMT-0600 (Central Standard Time),708537.700000003,CFD-BM-029-026-HC.jpg,1600,solid,O,m,933,10,1,28307.79999999702,680229.900000006,7040,ATS,A,12
10,test,2,C,haborder.png,0,z,Fri Feb 07 2025 15:46:13 GMT-0600 (Central Standard Time),711670.1000000015,CFD-WF-003-014-A.jpg,1700,solid,O,m,1411,9,1,31440.19999999553,680229.900000006,7040,ATS,A,13
11,test,2,C,mfborder.png,1,z,Fri Feb 07 2025 15:46:13 GMT-0600 (Central Standard Time),714002.8000000045,CFD-BF-028-020-HC.jpg,1500,dash,O,z,799,3,1,33772.89999999851,680229.900000006,7040,ATS,A,14
12,test,2,C,mfborder.png,1,m,Fri Feb 07 2025 15:46:13 GMT-0600 (Central Standard Time),716001.900000006,CFD-WM-013-015-A.jpg,1200,dash,O,m,770,6,1,35772.0,680229.900000006,7040,ATS,A,15
13,test,2,C,mfborder.png,1,z,Fri Feb 07 2025 15:46:13 GMT-0600 (Central Standard Time),718151.400000006,CFD-WF-019-015-A.jpg,1600,dash,O,z,519,2,1,37921.5,680229.900000006,7040,ATS,A,16
14,test,2,C,mfborder.png,1,m,Fri Feb 07 2025 15:46:13 GMT-0600 (Central Standard Time),720800.700000003,CFD-BM-005-010-A.jpg,2000,dash,O,m,626,5,1,40570.79999999702,680229.900000006,7040,ATS,A,17
15,test,2,C,mfborder.png,1,m,Fri Feb 07 2025 15:46:13 GMT-0600 (Central Standard Time),723383.1000000015,CFD-BM-005-010-A.jpg,2000,dash,O,m,552,5,1,43153.19999999553,680229.900000006,7040,ATS,A,18
16,test,2,C,haborder.png,1,z,Fri Feb 07 2025 15:46:13 GMT-0600 (Central Standard Time),725982.200000003,CFD-BF-023-013-A.jpg,1400,solid,O,z,1176,7,1,45752.29999999702,680229.900000006,7040,ATS,A,19
17,test,2,C,mfborder.png,1,z,Fri Feb 07 2025 15:46:13 GMT-0600 (Central Standard Time),728731.200000003,CFD-BF-028-020-HC.jpg,1500,dash,O,z,1222,3,1,48501.29999999702,680229.900000006,7040,ATS,A,20
18,test,2,C,haborder.png,1,z,Fri Feb 07 2025 15:46:13 GMT-0600 (Central Standard Time),731063.900000006,CFD-BF-023-013-A.jpg,1400,solid,O,z,900,7,1,50834.0,680229.900000006,7040,ATS,A,21
19,test,2,C,mfborder.png,1,z,Fri Feb 07 2025 15:46:13 GMT-0600 (Central Standard Time),733763.3000000045,CFD-WF-017-016-HC.jpg,1700,dash,O,z,965,1,1,53533.39999999851,680229.900000006,7040,ATS,A,22
20,test,2,C,haborder.png,1,m,Fri Feb 07 2025 15:46:13 GMT-0600 (Central Standard Time),736429.0,CFD-WM-004-005-HC.jpg,1500,solid,O,m,1145,11,1,56199.09999999404,680229.900000006,7040,ATS,A,23
20,test,2,C,haborder.png,0,m,Fri Feb 07 2025 15:46:13 GMT-0600 (Central Standard Time),738961.5,CFD-WM-004-005-HC.jpg,1000,solid,O,None,1513,12,1,58731.59999999404,680229.900000006,7040,ATS,A,24
1,test,3,C,mfborder.png,1,m,Fri Feb 07 2025 15:46:13 GMT-0600 (Central Standard Time),760189.0,CFD-WM-019-013-A.jpg,2000,dash,O,m,509,5,1,2533.2999999970198,757655.700000003,7040,ATS,A,1
2,test,3,C,mfborder.png,1,z,Fri Feb 07 2025 15:46:13 GMT-0600 (Central Standard Time),762371.1000000015,CFD-BF-010-005-HC.jpg,1700,dash,O,z,448,1,1,4715.39999999851,757655.700000003,7040,ATS,A,2
3,test,3,C,haborder.png,1,z,Fri Feb 07 2025 15:46:13 GMT-0600 (Central Standard Time),765236.6000000015,CFD-BM-010-019-A.jpg,1700,solid,O,z,1138,9,1,7580.89999999851,757655.700000003,7040,ATS,A,3
4,test,3,C,haborder.png,1,z,Fri Feb 07 2025 15:46:13 GMT-0600 (Central Standard Time),768019.200000003,CFD-BM-005-010-A.jpg,1900,solid,O,z,848,8,1,10363.5,757655.700000003,7040,ATS,A,4
5,test,3,C,mfborder.png,1,z,Fri Feb 07 2025 15:46:13 GMT-0600 (Central Standard Time),770835.0,CFD-WF-003-014-A.jpg,1500,dash,O,z,1281,3,1,13179.29999999702,757655.700000003,7040,ATS,A,5
6,test,3,C,mfborder.png,1,m,Fri Feb 07 2025 15:46:13 GMT-0600 (Central Standard Time),773051.0,CFD-BM-029-026-HC.jpg,1200,dash,O,m,989,6,1,15395.29999999702,757655.700000003,7040,ATS,A,6
7,test,3,C,haborder.png,1,z,Fri Feb 07 2025 15:46:13 GMT-0600 (Central Standard Time),775733.3000000045,CFD-BM-010-019-A.jpg,1700,solid,O,z,962,9,1,18077.60000000149,757655.700000003,7040,ATS,A,7
8,test,3,C,mfborder.png,1,z,Fri Feb 07 2025 15:46:13 GMT-0600 (Central Standard Time),778549.200000003,CFD-BF-023-013-A.jpg,1600,dash,O,z,1195,2,1,20893.5,757655.700000003,7040,ATS,A,8
9,test,3,C,haborder.png,1,m,Fri Feb 07 2025 15:46:13 GMT-0600 (Central Standard Time),781064.900000006,CFD-WF-002-008-HC.jpg,1500,solid,O,m,991,11,1,23409.20000000298,757655.700000003,7040,ATS,A,9
10,test,3,C,haborder.png,1,m,Fri Feb 07 2025 15:46:13 GMT-0600 (Central Standard Time),783414.200000003,CFD-WF-002-008-HC.jpg,1500,solid,O,m,819,11,1,25758.5,757655.700000003,7040,ATS,A,10
11,test,3,C,mfborder.png,1,m,Fri Feb 07 2025 15:46:13 GMT-0600 (Central Standard Time),785563.700000003,CFD-WM-006-013-HC.jpg,1000,dash,O,m,1114,4,1,27908.0,757655.700000003,7040,ATS,A,11
12,test,3,C,mfborder.png,1,m,Fri Feb 07 2025 15:46:13 GMT-0600 (Central Standard Time),788612.700000003,CFD-WM-019-013-A.jpg,2000,dash,O,m,1021,5,1,30957.0,757655.700000003,7040,ATS,A,12
13,test,3,C,haborder.png,1,m,Fri Feb 07 2025 15:46:13 GMT-0600 (Central Standard Time),790696.5,CFD-WF-017-016-HC.jpg,1000,solid,O,m,1060,12,1,33040.79999999702,757655.700000003,7040,ATS,A,13
14,test,3,C,mfborder.png,1,z,Fri Feb 07 2025 15:46:13 GMT-0600 (Central Standard Time),793127.900000006,CFD-WF-003-014-A.jpg,1500,dash,O,z,909,3,1,35472.20000000298,757655.700000003,7040,ATS,A,14
15,test,3,C,haborder.png,1,z,Fri Feb 07 2025 15:46:13 GMT-0600 (Central Standard Time),795793.8000000045,CFD-WM-013-015-A.jpg,1400,solid,O,z,1241,7,1,38138.10000000149,757655.700000003,7040,ATS,A,15
16,test,3,C,haborder.png,1,z,Fri Feb 07 2025 15:46:13 GMT-0600 (Central Standard Time),798959.5,CFD-BM-005-010-A.jpg,1900,solid,O,z,1243,8,1,41303.79999999702,757655.700000003,7040,ATS,A,16
17,test,3,C,haborder.png,1,m,Fri Feb 07 2025 15:46:13 GMT-0600 (Central Standard Time),801542.1000000015,CFD-BF-028-020-HC.jpg,1600,solid,O,m,953,10,1,43886.39999999851,757655.700000003,7040,ATS,A,17
18,test,3,C,mfborder.png,1,m,Fri Feb 07 2025 15:46:13 GMT-0600 (Central Standard Time),803458.0,CFD-BM-029-026-HC.jpg,1200,dash,O,m,691,6,1,45802.29999999702,757655.700000003,7040,ATS,A,18
19,test,3,C,haborder.png,1,z,Fri Feb 07 2025 15:46:13 GMT-0600 (Central Standard Time),806042.1000000015,CFD-WM-013-015-A.jpg,1400,solid,O,z,1159,7,1,48386.39999999851,757655.700000003,7040,ATS,A,19
20,test,3,C,mfborder.png,1,m,Fri Feb 07 2025 15:46:13 GMT-0600 (Central Standard Time),807723.400000006,CFD-WM-006-013-HC.jpg,1000,dash,O,m,664,4,1,50067.70000000298,757655.700000003,7040,ATS,A,20
21,test,3,C,mfborder.png,1,z,Fri Feb 07 2025 15:46:13 GMT-0600 (Central Standard Time),810005.900000006,CFD-BF-010-005-HC.jpg,1700,dash,O,z,553,1,1,52350.20000000298,757655.700000003,7040,ATS,A,21
21,test,3,C,mfborder.png,0,z,Fri Feb 07 2025 15:46:13 GMT-0600 (Central Standard Time),813138.200000003,CFD-BF-023-013-A.jpg,1600,dash,O,None,1514,2,1,55482.5,757655.700000003,7040,ATS,A,22
22,test,3,C,haborder.png,1,m,Fri Feb 07 2025 15:46:13 GMT-0600 (Central Standard Time),815237.700000003,CFD-WF-017-016-HC.jpg,1000,solid,O,m,1070,12,1,57582.0,757655.700000003,7040,ATS,A,23
22,test,3,C,haborder.png,0,m,Fri Feb 07 2025 15:46:13 GMT-0600 (Central Standard Time),818103.3000000045,CFD-BF-028-020-HC.jpg,1600,solid,O,z,1243,10,1,60447.60000000149,757655.700000003,7040,ATS,A,24
1,test,4,C,haborder.png,1,m,Fri Feb 07 2025 15:46:13 GMT-0600 (Central Standard Time),836347.700000003,CFD-WM-004-005-HC.jpg,1000,solid,O,m,1144,12,1,2165.89999999851,834181.8000000045,7040,ATS,A,1
2,test,4,C,mfborder.png,1,m,Fri Feb 07 2025 15:46:13 GMT-0600 (Central Standard Time),839147.1000000015,CFD-BM-005-010-A.jpg,2000,dash,O,m,765,5,1,4965.29999999702,834181.8000000045,7040,ATS,A,2
3,test,4,C,haborder.png,1,m,Fri Feb 07 2025 15:46:13 GMT-0600 (Central Standard Time),841612.8000000045,CFD-BM-029-026-HC.jpg,1600,solid,O,m,760,10,1,7431.0,834181.8000000045,7040,ATS,A,3
4,test,4,C,mfborder.png,1,z,Fri Feb 07 2025 15:46:13 GMT-0600 (Central Standard Time),843728.700000003,CFD-BF-028-020-HC.jpg,1500,dash,O,z,584,3,1,9546.89999999851,834181.8000000045,7040,ATS,A,4
5,test,4,C,haborder.png,1,m,Fri Feb 07 2025 15:46:13 GMT-0600 (Central Standard Time),846378.1000000015,CFD-BM-029-026-HC.jpg,1600,solid,O,m,1024,10,1,12196.29999999702,834181.8000000045,7040,ATS,A,5
6,test,4,C,haborder.png,1,z,Fri Feb 07 2025 15:46:13 GMT-0600 (Central Standard Time),848827.0,CFD-BF-023-013-A.jpg,1400,solid,O,z,1023,7,1,14645.19999999553,834181.8000000045,7040,ATS,A,6
7,test,4,C,haborder.png,1,m,Fri Feb 07 2025 15:46:13 GMT-0600 (Central Standard Time),851076.5,CFD-WM-004-005-HC.jpg,1500,solid,O,m,725,11,1,16894.69999999553,834181.8000000045,7040,ATS,A,7
8,test,4,C,mfborder.png,1,z,Fri Feb 07 2025 15:46:13 GMT-0600 (Central Standard Time),853393.5,CFD-WF-017-016-HC.jpg,1700,dash,O,z,592,1,1,19211.69999999553,834181.8000000045,7040,ATS,A,8
9,test,4,C,haborder.png,1,z,Fri Feb 07 2025 15:46:13 GMT-0600 (Central Standard Time),855758.3000000045,CFD-BF-023-013-A.jpg,1400,solid,O,z,936,7,1,21576.5,834181.8000000045,7040,ATS,A,9
10,test,4,C,mfborder.png,1,z,Fri Feb 07 2025 15:46:13 GMT-0600 (Central Standard Time),858573.900000006,CFD-WF-019-015-A.jpg,1600,dash,O,z,1194,2,1,24392.10000000149,834181.8000000045,7040,ATS,A,10
11,test,4,C,haborder.png,1,z,Fri Feb 07 2025 15:46:13 GMT-0600 (Central Standard Time),861390.0,CFD-BF-039-039-A.jpg,1900,solid,O,z,886,8,1,27208.19999999553,834181.8000000045,7040,ATS,A,11
12,test,4,C,haborder.png,1,z,Fri Feb 07 2025 15:46:13 GMT-0600 (Central Standard Time),864382.5,CFD-BF-039-039-A.jpg,1900,solid,O,z,1074,8,1,30200.69999999553,834181.8000000045,7040,ATS,A,12
13,test,4,C,mfborder.png,1,z,Fri Feb 07 2025 15:46:13 GMT-0600 (Central Standard Time),867471.200000003,CFD-WF-017-016-HC.jpg,1700,dash,O,z,1368,1,1,33289.39999999851,834181.8000000045,7040,ATS,A,13
14,test,4,C,mfborder.png,1,m,Fri Feb 07 2025 15:46:13 GMT-0600 (Central Standard Time),869337.3000000045,CFD-WM-013-015-A.jpg,1200,dash,O,m,633,6,1,35155.5,834181.8000000045,7040,ATS,A,14
15,test,4,C,mfborder.png,1,m,Fri Feb 07 2025 15:46:13 GMT-0600 (Central Standard Time),871203.400000006,CFD-BM-017-052-HC.jpg,1000,dash,O,m,847,4,1,37021.60000000149,834181.8000000045,7040,ATS,A,15
16,test,4,C,mfborder.png,1,z,Fri Feb 07 2025 15:46:13 GMT-0600 (Central Standard Time),873402.900000006,CFD-BF-028-020-HC.jpg,1500,dash,O,z,665,3,1,39221.10000000149,834181.8000000045,7040,ATS,A,16
17,test,4,C,mfborder.png,1,m,Fri Feb 07 2025 15:46:13 GMT-0600 (Central Standard Time),876035.8000000045,CFD-BM-005-010-A.jpg,2000,dash,O,m,598,5,1,41854.0,834181.8000000045,7040,ATS,A,17
18,test,4,C,haborder.png,1,m,Fri Feb 07 2025 15:46:13 GMT-0600 (Central Standard Time),877785.900000006,CFD-WM-004-005-HC.jpg,1000,solid,O,m,717,12,1,43604.10000000149,834181.8000000045,7040,ATS,A,18
19,test,4,C,haborder.png,1,m,Fri Feb 07 2025 15:46:13 GMT-0600 (Central Standard Time),880100.5,CFD-WM-004-005-HC.jpg,1500,solid,O,m,796,11,1,45918.69999999553,834181.8000000045,7040,ATS,A,19
20,test,4,C,mfborder.png,1,m,Fri Feb 07 2025 15:46:13 GMT-0600 (Central Standard Time),882050.200000003,CFD-BM-017-052-HC.jpg,1000,dash,O,m,916,4,1,47868.39999999851,834181.8000000045,7040,ATS,A,20
21,test,4,C,haborder.png,1,z,Fri Feb 07 2025 15:46:13 GMT-0600 (Central Standard Time),884632.700000003,CFD-WF-003-014-A.jpg,1700,solid,O,z,859,9,1,50450.89999999851,834181.8000000045,7040,ATS,A,21
22,test,4,C,mfborder.png,1,m,Fri Feb 07 2025 15:46:13 GMT-0600 (Central Standard Time),886715.400000006,CFD-WM-013-015-A.jpg,1200,dash,O,m,864,6,1,52533.60000000149,834181.8000000045,7040,ATS,A,22
23,test,4,C,haborder.png,1,z,Fri Feb 07 2025 15:46:13 GMT-0600 (Central Standard Time),888981.1000000015,CFD-WF-003-014-A.jpg,1700,solid,O,z,537,9,1,54799.29999999702,834181.8000000045,7040,ATS,A,23
24,test,4,C,mfborder.png,1,z,Fri Feb 07 2025 15:46:13 GMT-0600 (Central Standard Time),891580.6000000015,CFD-WF-019-015-A.jpg,1600,dash,O,z,980,2,1,57398.79999999702,834181.8000000045,7040,ATS,A,24
