acc_sum,block,block_c,block_cond,con_img,correct,correct_response,datetime,endtime,face,jitter,line,project,response,response_time,row_sel,session_number,start_end,starttime,subject_id,task,task_vers,trial
1,prac,1,A,haborder.png,1,m,Thu Sep 26 2024 15:59:44 GMT-0500 (Central Daylight Time),99976.20000000019,CFD-BF-035-007-HC.jpg,2000,solid,O,m,1399,5,1,4182.0,95794.20000000019,9999,ATS,B,1
2,prac,1,A,haborder.png,1,z,Thu Sep 26 2024 15:59:44 GMT-0500 (Central Daylight Time),103193.0,CFD-BM-037-041-A.jpg,1600,solid,O,z,849,2,1,7398.799999999814,95794.20000000019,9999,ATS,B,2
3,prac,1,A,haborder.png,1,m,Thu Sep 26 2024 15:59:44 GMT-0500 (Central Daylight Time),106091.1000000001,CFD-WF-011-006-HC.jpg,1500,solid,O,m,613,11,1,10296.899999999907,95794.20000000019,9999,ATS,B,3
4,prac,1,A,haborder.png,1,m,Thu Sep 26 2024 15:59:44 GMT-0500 (Central Daylight Time),109290.1000000001,CFD-WM-012-007-HC.jpg,1700,solid,O,m,640,9,1,13495.899999999907,95794.20000000019,9999,ATS,B,4
4,prac,1,A,haborder.png,0,z,Thu Sep 26 2024 15:59:44 GMT-0500 (Central Daylight Time),112590.0,CFD-WF-013-015-A.jpg,1000,solid,O,None,1516,12,1,16795.799999999814,95794.20000000019,9999,ATS,B,5
5,prac,1,A,haborder.png,1,m,Thu Sep 26 2024 15:59:44 GMT-0500 (Central Daylight Time),115688.0,CFD-BM-020-024-HC.jpg,1500,solid,O,m,800,3,1,19893.799999999814,95794.20000000019,9999,ATS,B,6
6,prac,1,A,haborder.png,1,m,Thu Sep 26 2024 15:59:44 GMT-0500 (Central Daylight Time),118937.20000000019,CFD-BM-015-017-HC.jpg,1700,solid,O,m,765,1,1,23143.0,95794.20000000019,9999,ATS,B,7
7,prac,1,A,haborder.png,1,z,Thu Sep 26 2024 15:59:44 GMT-0500 (Central Daylight Time),122170.40000000037,CFD-WF-026-008-A.jpg,1600,solid,O,z,849,10,1,26376.200000000186,95794.20000000019,9999,ATS,B,8
8,prac,1,A,haborder.png,1,m,Thu Sep 26 2024 15:59:44 GMT-0500 (Central Daylight Time),125136.20000000019,CFD-WM-011-006-HC.jpg,1400,solid,O,m,775,7,1,29342.0,95794.20000000019,9999,ATS,B,9
9,prac,1,A,haborder.png,1,z,Thu Sep 26 2024 15:59:44 GMT-0500 (Central Daylight Time),128517.30000000028,CFD-WM-009-009-A.jpg,1900,solid,O,z,695,8,1,32723.100000000093,95794.20000000019,9999,ATS,B,10
10,prac,1,A,haborder.png,1,z,Thu Sep 26 2024 15:59:44 GMT-0500 (Central Daylight Time),130983.30000000028,CFD-BF-051-043-A.jpg,1000,solid,O,z,668,4,1,35189.10000000009,95794.20000000019,9999,ATS,B,11
11,prac,1,A,haborder.png,1,z,Thu Sep 26 2024 15:59:44 GMT-0500 (Central Daylight Time),133649.1000000001,CFD-BF-050-012-A.jpg,1200,solid,O,z,665,6,1,37854.89999999991,95794.20000000019,9999,ATS,B,12
1,prac,1,B,mfborder.png,1,m,Thu Sep 26 2024 15:59:44 GMT-0500 (Central Daylight Time),179251.5,CFD-WM-037-060-A.jpg,1200,dash,O,m,963,6,1,3082.399999999441,176169.10000000056,9999,ATS,B,1
2,prac,1,B,mfborder.png,1,z,Thu Sep 26 2024 15:59:44 GMT-0500 (Central Daylight Time),182050.5,CFD-WF-011-006-HC.jpg,1000,dash,O,z,1006,12,1,5881.399999999441,176169.10000000056,9999,ATS,B,2
3,prac,1,B,mfborder.png,1,z,Thu Sep 26 2024 15:59:44 GMT-0500 (Central Daylight Time),184483.0,CFD-BF-051-043-A.jpg,1000,dash,O,z,647,4,1,8313.899999999441,176169.10000000056,9999,ATS,B,3
4,prac,1,B,mfborder.png,1,m,Thu Sep 26 2024 15:59:44 GMT-0500 (Central Daylight Time),188032.10000000056,CFD-BM-037-041-A.jpg,2000,dash,O,m,750,5,1,11863.0,176169.10000000056,9999,ATS,B,4
5,prac,1,B,mfborder.png,1,m,Thu Sep 26 2024 15:59:44 GMT-0500 (Central Daylight Time),191314.2999999998,CFD-WM-012-007-HC.jpg,1600,dash,O,m,890,10,1,15145.199999999255,176169.10000000056,9999,ATS,B,5
5,prac,1,B,mfborder.png,0,m,Thu Sep 26 2024 15:59:44 GMT-0500 (Central Daylight Time),195312.90000000037,CFD-WM-009-009-A.jpg,1700,dash,O,None,1515,9,1,19143.799999999814,176169.10000000056,9999,ATS,B,6
6,prac,1,B,mfborder.png,1,m,Thu Sep 26 2024 15:59:44 GMT-0500 (Central Daylight Time),198395.2000000002,CFD-BM-020-024-HC.jpg,1700,dash,O,m,596,1,1,22226.099999999627,176169.10000000056,9999,ATS,B,7
7,prac,1,B,mfborder.png,1,m,Thu Sep 26 2024 15:59:44 GMT-0500 (Central Daylight Time),201427.7999999998,CFD-BM-041-048-A.jpg,1600,dash,O,m,646,2,1,25258.699999999255,176169.10000000056,9999,ATS,B,8
8,prac,1,B,mfborder.png,1,z,Thu Sep 26 2024 15:59:44 GMT-0500 (Central Daylight Time),204293.60000000056,CFD-WF-026-008-A.jpg,1500,dash,O,z,578,11,1,28124.5,176169.10000000056,9999,ATS,B,9
9,prac,1,B,mfborder.png,1,z,Thu Sep 26 2024 15:59:44 GMT-0500 (Central Daylight Time),208025.7000000002,CFD-WF-027-007-HC.jpg,1900,dash,O,z,1048,8,1,31856.599999999627,176169.10000000056,9999,ATS,B,10
10,prac,1,B,mfborder.png,1,z,Thu Sep 26 2024 15:59:44 GMT-0500 (Central Daylight Time),211641.2000000002,CFD-BF-027-013-HC.jpg,1500,dash,O,z,1324,3,1,35472.09999999963,176169.10000000056,9999,ATS,B,11
10,prac,1,B,mfborder.png,0,z,Thu Sep 26 2024 15:59:44 GMT-0500 (Central Daylight Time),215056.90000000037,CFD-BF-035-007-HC.jpg,1400,dash,O,m,1232,7,1,38887.799999999814,176169.10000000056,9999,ATS,B,12
0,test,1,A,haborder.png,0,m,Thu Sep 26 2024 15:59:44 GMT-0500 (Central Daylight Time),248329.7999999998,CFD-WF-011-006-HC.jpg,1500,solid,O,z,1158,11,1,2682.5999999996275,245647.2000000002,9999,ATS,B,1
1,test,1,A,haborder.png,1,z,Thu Sep 26 2024 15:59:44 GMT-0500 (Central Daylight Time),250129.10000000056,CFD-BF-051-043-A.jpg,1000,solid,O,z,768,4,1,4481.9000000003725,245647.2000000002,9999,ATS,B,2
2,test,1,A,haborder.png,1,z,Thu Sep 26 2024 15:59:44 GMT-0500 (Central Daylight Time),251962.0,CFD-WF-013-015-A.jpg,1000,solid,O,z,800,12,1,6314.799999999814,245647.2000000002,9999,ATS,B,3
3,test,1,A,haborder.png,1,z,Thu Sep 26 2024 15:59:44 GMT-0500 (Central Daylight Time),254444.2999999998,CFD-BM-037-041-A.jpg,1600,solid,O,z,856,2,1,8797.099999999627,245647.2000000002,9999,ATS,B,4
4,test,1,A,haborder.png,1,z,Thu Sep 26 2024 15:59:44 GMT-0500 (Central Daylight Time),257476.7000000002,CFD-WM-009-009-A.jpg,1900,solid,O,z,1105,8,1,11829.5,245647.2000000002,9999,ATS,B,5
5,test,1,A,haborder.png,1,z,Thu Sep 26 2024 15:59:44 GMT-0500 (Central Daylight Time),259343.0,CFD-BF-050-012-A.jpg,1200,solid,O,z,637,6,1,13695.799999999814,245647.2000000002,9999,ATS,B,6
6,test,1,A,haborder.png,1,z,Thu Sep 26 2024 15:59:44 GMT-0500 (Central Daylight Time),261142.2000000002,CFD-WF-013-015-A.jpg,1000,solid,O,z,778,12,1,15495.0,245647.2000000002,9999,ATS,B,7
7,test,1,A,haborder.png,1,m,Thu Sep 26 2024 15:59:44 GMT-0500 (Central Daylight Time),263758.0,CFD-WM-012-007-HC.jpg,1700,solid,O,m,887,9,1,18110.799999999814,245647.2000000002,9999,ATS,B,8
8,test,1,A,haborder.png,1,z,Thu Sep 26 2024 15:59:44 GMT-0500 (Central Daylight Time),265791.7999999998,CFD-BF-050-012-A.jpg,1200,solid,O,z,803,6,1,20144.599999999627,245647.2000000002,9999,ATS,B,9
9,test,1,A,haborder.png,1,m,Thu Sep 26 2024 15:59:44 GMT-0500 (Central Daylight Time),268207.10000000056,CFD-WF-011-006-HC.jpg,1500,solid,O,m,895,11,1,22559.900000000373,245647.2000000002,9999,ATS,B,10
10,test,1,A,haborder.png,1,z,Thu Sep 26 2024 15:59:44 GMT-0500 (Central Daylight Time),270722.5,CFD-BM-037-041-A.jpg,1600,solid,O,z,899,2,1,25075.299999999814,245647.2000000002,9999,ATS,B,11
11,test,1,A,haborder.png,1,z,Thu Sep 26 2024 15:59:44 GMT-0500 (Central Daylight Time),272666.7000000002,CFD-BF-051-043-A.jpg,1000,solid,O,z,781,4,1,27019.5,245647.2000000002,9999,ATS,B,12
12,test,1,A,haborder.png,1,m,Thu Sep 26 2024 15:59:44 GMT-0500 (Central Daylight Time),275054.7000000002,CFD-WM-011-006-HC.jpg,1400,solid,O,m,961,7,1,29407.5,245647.2000000002,9999,ATS,B,13
13,test,1,A,haborder.png,1,m,Thu Sep 26 2024 15:59:44 GMT-0500 (Central Daylight Time),277104.0,CFD-WM-011-006-HC.jpg,1400,solid,O,m,619,7,1,31456.799999999814,245647.2000000002,9999,ATS,B,14
14,test,1,A,haborder.png,1,z,Thu Sep 26 2024 15:59:44 GMT-0500 (Central Daylight Time),279536.4000000004,CFD-WF-026-008-A.jpg,1600,solid,O,z,802,10,1,33889.200000000186,245647.2000000002,9999,ATS,B,15
14,test,1,A,haborder.png,0,m,Thu Sep 26 2024 15:59:44 GMT-0500 (Central Daylight Time),281802.2999999998,CFD-BM-020-024-HC.jpg,1500,solid,O,z,749,3,1,36155.09999999963,245647.2000000002,9999,ATS,B,16
15,test,1,A,haborder.png,1,m,Thu Sep 26 2024 15:59:44 GMT-0500 (Central Daylight Time),284218.2999999998,CFD-BM-020-024-HC.jpg,1500,solid,O,m,899,3,1,38571.09999999963,245647.2000000002,9999,ATS,B,17
16,test,1,A,haborder.png,1,z,Thu Sep 26 2024 15:59:44 GMT-0500 (Central Daylight Time),286634.2999999998,CFD-WF-026-008-A.jpg,1600,solid,O,z,783,10,1,40987.09999999963,245647.2000000002,9999,ATS,B,18
17,test,1,A,haborder.png,1,m,Thu Sep 26 2024 15:59:44 GMT-0500 (Central Daylight Time),289800.0,CFD-BF-035-007-HC.jpg,2000,solid,O,m,1135,5,1,44152.799999999814,245647.2000000002,9999,ATS,B,19
18,test,1,A,haborder.png,1,z,Thu Sep 26 2024 15:59:44 GMT-0500 (Central Daylight Time),292515.7999999998,CFD-WM-009-009-A.jpg,1900,solid,O,z,798,8,1,46868.59999999963,245647.2000000002,9999,ATS,B,20
19,test,1,A,haborder.png,1,m,Thu Sep 26 2024 15:59:44 GMT-0500 (Central Daylight Time),295366.0,CFD-BM-015-017-HC.jpg,1700,solid,O,m,1130,1,1,49718.799999999814,245647.2000000002,9999,ATS,B,21
20,test,1,A,haborder.png,1,m,Thu Sep 26 2024 15:59:44 GMT-0500 (Central Daylight Time),298130.4000000004,CFD-BM-015-017-HC.jpg,1700,solid,O,m,1049,1,1,52483.200000000186,245647.2000000002,9999,ATS,B,22
21,test,1,A,haborder.png,1,m,Thu Sep 26 2024 15:59:44 GMT-0500 (Central Daylight Time),300663.2000000002,CFD-WM-012-007-HC.jpg,1700,solid,O,m,803,9,1,55016.0,245647.2000000002,9999,ATS,B,23
22,test,1,A,haborder.png,1,m,Thu Sep 26 2024 15:59:44 GMT-0500 (Central Daylight Time),303362.4000000004,CFD-BF-035-007-HC.jpg,2000,solid,O,m,682,5,1,57715.200000000186,245647.2000000002,9999,ATS,B,24
1,test,1,B,mfborder.png,1,m,Thu Sep 26 2024 15:59:44 GMT-0500 (Central Daylight Time),353746.4000000004,CFD-WM-012-007-HC.jpg,1600,dash,O,m,1282,10,1,2898.9000000003725,350847.5,9999,ATS,B,1
2,test,1,B,mfborder.png,1,z,Thu Sep 26 2024 15:59:44 GMT-0500 (Central Daylight Time),355495.7999999998,CFD-WF-011-006-HC.jpg,1000,dash,O,z,719,12,1,4648.299999999814,350847.5,9999,ATS,B,2
3,test,1,B,mfborder.png,1,m,Thu Sep 26 2024 15:59:44 GMT-0500 (Central Daylight Time),357313.2999999998,CFD-WM-037-060-A.jpg,1200,dash,O,m,593,6,1,6465.799999999814,350847.5,9999,ATS,B,3
4,test,1,B,mfborder.png,1,z,Thu Sep 26 2024 15:59:44 GMT-0500 (Central Daylight Time),359061.4000000004,CFD-BF-051-043-A.jpg,1000,dash,O,z,729,4,1,8213.900000000373,350847.5,9999,ATS,B,4
5,test,1,B,mfborder.png,1,z,Thu Sep 26 2024 15:59:44 GMT-0500 (Central Daylight Time),360844.4000000004,CFD-BF-051-043-A.jpg,1000,dash,O,z,756,4,1,9996.900000000373,350847.5,9999,ATS,B,5
5,test,1,B,mfborder.png,0,z,Thu Sep 26 2024 15:59:44 GMT-0500 (Central Daylight Time),363776.7999999998,CFD-WF-027-007-HC.jpg,1900,dash,O,m,1001,8,1,12929.299999999814,350847.5,9999,ATS,B,6
6,test,1,B,mfborder.png,1,m,Thu Sep 26 2024 15:59:44 GMT-0500 (Central Daylight Time),366392.60000000056,CFD-BM-037-041-A.jpg,2000,dash,O,m,585,5,1,15545.100000000559,350847.5,9999,ATS,B,7
7,test,1,B,mfborder.png,1,z,Thu Sep 26 2024 15:59:44 GMT-0500 (Central Daylight Time),368941.7999999998,CFD-BF-027-013-HC.jpg,1500,dash,O,z,1029,3,1,18094.299999999814,350847.5,9999,ATS,B,8
8,test,1,B,mfborder.png,1,m,Thu Sep 26 2024 15:59:44 GMT-0500 (Central Daylight Time),371592.10000000056,CFD-BM-020-024-HC.jpg,1700,dash,O,m,920,1,1,20744.60000000056,350847.5,9999,ATS,B,9
8,test,1,B,mfborder.png,0,m,Thu Sep 26 2024 15:59:44 GMT-0500 (Central Daylight Time),374823.2000000002,CFD-BM-020-024-HC.jpg,1700,dash,O,None,1515,1,1,23975.700000000186,350847.5,9999,ATS,B,10
8,test,1,B,mfborder.png,0,z,Thu Sep 26 2024 15:59:44 GMT-0500 (Central Daylight Time),377755.7999999998,CFD-BF-035-007-HC.jpg,1400,dash,O,None,1516,7,1,26908.299999999814,350847.5,9999,ATS,B,11
9,test,1,B,mfborder.png,1,m,Thu Sep 26 2024 15:59:44 GMT-0500 (Central Daylight Time),380038.2999999998,CFD-BM-041-048-A.jpg,1600,dash,O,m,654,2,1,29190.799999999814,350847.5,9999,ATS,B,12
10,test,1,B,mfborder.png,1,m,Thu Sep 26 2024 15:59:44 GMT-0500 (Central Daylight Time),382304.10000000056,CFD-WM-012-007-HC.jpg,1600,dash,O,m,643,10,1,31456.60000000056,350847.5,9999,ATS,B,13
11,test,1,B,mfborder.png,1,m,Thu Sep 26 2024 15:59:44 GMT-0500 (Central Daylight Time),384853.5,CFD-WM-009-009-A.jpg,1700,dash,O,m,821,9,1,34006.0,350847.5,9999,ATS,B,14
12,test,1,B,mfborder.png,1,z,Thu Sep 26 2024 15:59:44 GMT-0500 (Central Daylight Time),386553.0,CFD-WF-011-006-HC.jpg,1000,dash,O,z,675,12,1,35705.5,350847.5,9999,ATS,B,15
13,test,1,B,mfborder.png,1,z,Thu Sep 26 2024 15:59:44 GMT-0500 (Central Daylight Time),389068.9000000004,CFD-WF-026-008-A.jpg,1500,dash,O,z,996,11,1,38221.40000000037,350847.5,9999,ATS,B,16
14,test,1,B,mfborder.png,1,m,Thu Sep 26 2024 15:59:44 GMT-0500 (Central Daylight Time),391134.60000000056,CFD-WM-037-060-A.jpg,1200,dash,O,m,767,6,1,40287.10000000056,350847.5,9999,ATS,B,17
15,test,1,B,mfborder.png,1,m,Thu Sep 26 2024 15:59:44 GMT-0500 (Central Daylight Time),393467.4000000004,CFD-BM-041-048-A.jpg,1600,dash,O,m,714,2,1,42619.90000000037,350847.5,9999,ATS,B,18
16,test,1,B,mfborder.png,1,z,Thu Sep 26 2024 15:59:44 GMT-0500 (Central Daylight Time),395749.9000000004,CFD-WF-026-008-A.jpg,1500,dash,O,z,762,11,1,44902.40000000037,350847.5,9999,ATS,B,19
16,test,1,B,mfborder.png,0,z,Thu Sep 26 2024 15:59:44 GMT-0500 (Central Daylight Time),398066.0,CFD-BF-035-007-HC.jpg,1400,dash,O,m,891,7,1,47218.5,350847.5,9999,ATS,B,20
17,test,1,B,mfborder.png,1,m,Thu Sep 26 2024 15:59:44 GMT-0500 (Central Daylight Time),400748.60000000056,CFD-BM-037-041-A.jpg,2000,dash,O,m,664,5,1,49901.10000000056,350847.5,9999,ATS,B,21
18,test,1,B,mfborder.png,1,z,Thu Sep 26 2024 15:59:44 GMT-0500 (Central Daylight Time),403514.10000000056,CFD-WF-027-007-HC.jpg,1900,dash,O,z,849,8,1,52666.60000000056,350847.5,9999,ATS,B,22
19,test,1,B,mfborder.png,1,m,Thu Sep 26 2024 15:59:44 GMT-0500 (Central Daylight Time),405846.7999999998,CFD-WM-009-009-A.jpg,1700,dash,O,m,603,9,1,54999.299999999814,350847.5,9999,ATS,B,23
20,test,1,B,mfborder.png,1,z,Thu Sep 26 2024 15:59:44 GMT-0500 (Central Daylight Time),408329.4000000004,CFD-BF-027-013-HC.jpg,1500,dash,O,z,951,3,1,57481.90000000037,350847.5,9999,ATS,B,24
0,8,1,C,haborder.png,0,z,Thu Sep 26 2024 15:59:44 GMT-0500 (Central Daylight Time),476025.0,CFD-BF-050-012-A.jpg,1700,solid,O,None,1516,prac,1,3998.7999999998137,472026.2000000002,9999,ATS,B,1
1,10,1,C,haborder.png,1,m,Thu Sep 26 2024 15:59:44 GMT-0500 (Central Daylight Time),479657.10000000056,CFD-BM-020-024-HC.jpg,1500,solid,O,m,1347,prac,1,7630.9000000003725,472026.2000000002,9999,ATS,B,2
2,1,1,C,mfborder.png,1,z,Thu Sep 26 2024 15:59:44 GMT-0500 (Central Daylight Time),483539.2999999998,CFD-WF-011-006-HC.jpg,1600,dash,O,z,1497,prac,1,11513.099999999627,472026.2000000002,9999,ATS,B,3
3,11,1,C,haborder.png,1,m,Thu Sep 26 2024 15:59:44 GMT-0500 (Central Daylight Time),486388.4000000004,CFD-WM-011-006-HC.jpg,1000,dash,O,m,1061,prac,1,14362.200000000186,472026.2000000002,9999,ATS,B,4
4,4,1,C,mfborder.png,1,m,Thu Sep 26 2024 15:59:44 GMT-0500 (Central Daylight Time),490320.60000000056,CFD-BM-015-017-HC.jpg,2000,solid,O,m,1141,prac,1,18294.400000000373,472026.2000000002,9999,ATS,B,5
5,2,1,C,mfborder.png,1,z,Thu Sep 26 2024 15:59:44 GMT-0500 (Central Daylight Time),493669.2000000002,CFD-WF-013-015-A.jpg,1500,solid,O,z,1053,prac,1,21643.0,472026.2000000002,9999,ATS,B,6
5,3,1,C,mfborder.png,0,z,Thu Sep 26 2024 15:59:44 GMT-0500 (Central Daylight Time),496968.4000000004,CFD-BF-035-007-HC.jpg,1000,dash,O,None,1516,prac,1,24942.200000000186,472026.2000000002,9999,ATS,B,7
6,9,1,C,haborder.png,1,z,Thu Sep 26 2024 15:59:44 GMT-0500 (Central Daylight Time),500533.9000000004,CFD-WF-026-008-A.jpg,1600,dash,O,z,1177,prac,1,28507.700000000186,472026.2000000002,9999,ATS,B,8
7,7,1,C,haborder.png,1,z,Thu Sep 26 2024 15:59:44 GMT-0500 (Central Daylight Time),504599.2000000002,CFD-BF-051-043-A.jpg,1900,dash,O,z,1368,prac,1,32573.0,472026.2000000002,9999,ATS,B,9
8,6,1,C,mfborder.png,1,m,Thu Sep 26 2024 15:59:44 GMT-0500 (Central Daylight Time),508264.5,CFD-WM-009-009-A.jpg,1700,solid,O,m,1182,prac,1,36238.299999999814,472026.2000000002,9999,ATS,B,10
9,5,1,C,mfborder.png,1,m,Thu Sep 26 2024 15:59:44 GMT-0500 (Central Daylight Time),511065.10000000056,CFD-BM-037-041-A.jpg,1200,dash,O,m,825,prac,1,39038.90000000037,472026.2000000002,9999,ATS,B,11
10,12,1,C,haborder.png,1,m,Thu Sep 26 2024 15:59:44 GMT-0500 (Central Daylight Time),514196.2000000002,CFD-WM-011-006-HC.jpg,1400,solid,O,m,938,prac,1,42170.0,472026.2000000002,9999,ATS,B,12
1,test,1,C,mfborder.png,1,z,Thu Sep 26 2024 15:59:44 GMT-0500 (Central Daylight Time),534323.2999999998,CFD-WF-026-008-A.jpg,1500,dash,O,z,974,3,1,2499.399999999441,531823.9000000004,9999,ATS,B,1
2,test,1,C,mfborder.png,1,z,Thu Sep 26 2024 15:59:44 GMT-0500 (Central Daylight Time),536939.1000000006,CFD-BF-027-013-HC.jpg,1700,dash,O,z,898,1,1,5115.200000000186,531823.9000000004,9999,ATS,B,2
3,test,1,C,mfborder.png,1,z,Thu Sep 26 2024 15:59:44 GMT-0500 (Central Daylight Time),539421.7000000002,CFD-BF-027-013-HC.jpg,1700,dash,O,z,762,1,1,7597.799999999814,531823.9000000004,9999,ATS,B,3
4,test,1,C,mfborder.png,1,m,Thu Sep 26 2024 15:59:44 GMT-0500 (Central Daylight Time),541704.2000000002,CFD-WM-012-007-HC.jpg,1000,dash,O,m,1252,4,1,9880.299999999814,531823.9000000004,9999,ATS,B,4
5,test,1,C,haborder.png,1,m,Thu Sep 26 2024 15:59:44 GMT-0500 (Central Daylight Time),544520.1000000006,CFD-WF-027-007-HC.jpg,1500,solid,O,m,1292,11,1,12696.200000000186,531823.9000000004,9999,ATS,B,5
6,test,1,C,haborder.png,1,z,Thu Sep 26 2024 15:59:44 GMT-0500 (Central Daylight Time),547152.7000000002,CFD-BM-041-048-A.jpg,1700,solid,O,z,901,9,1,15328.799999999814,531823.9000000004,9999,ATS,B,6
7,test,1,C,mfborder.png,1,m,Thu Sep 26 2024 15:59:44 GMT-0500 (Central Daylight Time),549585.0,CFD-BM-020-024-HC.jpg,1200,dash,O,m,1201,6,1,17761.099999999627,531823.9000000004,9999,ATS,B,7
8,test,1,C,haborder.png,1,m,Thu Sep 26 2024 15:59:44 GMT-0500 (Central Daylight Time),551569.1000000006,CFD-WF-011-006-HC.jpg,1000,solid,O,m,952,12,1,19745.200000000186,531823.9000000004,9999,ATS,B,8
9,test,1,C,mfborder.png,1,z,Thu Sep 26 2024 15:59:44 GMT-0500 (Central Daylight Time),554366.9000000004,CFD-BF-051-043-A.jpg,1600,dash,O,z,1178,2,1,22543.0,531823.9000000004,9999,ATS,B,9
9,test,1,C,haborder.png,0,m,Thu Sep 26 2024 15:59:44 GMT-0500 (Central Daylight Time),557232.7999999998,CFD-WF-027-007-HC.jpg,1500,solid,O,z,1334,11,1,25408.89999999944,531823.9000000004,9999,ATS,B,10
9,test,1,C,mfborder.png,0,m,Thu Sep 26 2024 15:59:44 GMT-0500 (Central Daylight Time),560765.0,CFD-WM-037-060-A.jpg,2000,dash,O,None,1516,5,1,28941.099999999627,531823.9000000004,9999,ATS,B,11
10,test,1,C,haborder.png,1,m,Thu Sep 26 2024 15:59:44 GMT-0500 (Central Daylight Time),563097.7000000002,CFD-WF-011-006-HC.jpg,1000,solid,O,m,1308,12,1,31273.799999999814,531823.9000000004,9999,ATS,B,12
11,test,1,C,haborder.png,1,z,Thu Sep 26 2024 15:59:44 GMT-0500 (Central Daylight Time),565929.9000000004,CFD-BM-037-041-A.jpg,1900,solid,O,z,916,8,1,34106.0,531823.9000000004,9999,ATS,B,13
11,test,1,C,mfborder.png,0,m,Thu Sep 26 2024 15:59:44 GMT-0500 (Central Daylight Time),569062.1000000006,CFD-WM-037-060-A.jpg,2000,dash,O,z,1103,5,1,37238.200000000186,531823.9000000004,9999,ATS,B,14
11,test,1,C,haborder.png,0,m,Thu Sep 26 2024 15:59:44 GMT-0500 (Central Daylight Time),572195.9000000004,CFD-BF-035-007-HC.jpg,1600,solid,O,None,1517,10,1,40372.0,531823.9000000004,9999,ATS,B,15
12,test,1,C,haborder.png,1,m,Thu Sep 26 2024 15:59:44 GMT-0500 (Central Daylight Time),574777.1000000006,CFD-BF-035-007-HC.jpg,1600,solid,O,m,959,10,1,42953.200000000186,531823.9000000004,9999,ATS,B,16
13,test,1,C,haborder.png,1,z,Thu Sep 26 2024 15:59:44 GMT-0500 (Central Daylight Time),577825.9000000004,CFD-BM-041-048-A.jpg,1700,solid,O,z,1317,9,1,46002.0,531823.9000000004,9999,ATS,B,17
14,test,1,C,haborder.png,1,z,Thu Sep 26 2024 15:59:44 GMT-0500 (Central Daylight Time),580342.0,CFD-WM-009-009-A.jpg,1400,solid,O,z,1087,7,1,48518.09999999963,531823.9000000004,9999,ATS,B,18
15,test,1,C,mfborder.png,1,m,Thu Sep 26 2024 15:59:44 GMT-0500 (Central Daylight Time),582158.2000000002,CFD-WM-012-007-HC.jpg,1000,dash,O,m,787,4,1,50334.299999999814,531823.9000000004,9999,ATS,B,19
16,test,1,C,haborder.png,1,z,Thu Sep 26 2024 15:59:44 GMT-0500 (Central Daylight Time),584974.0,CFD-WM-009-009-A.jpg,1400,solid,O,z,1387,7,1,53150.09999999963,531823.9000000004,9999,ATS,B,20
16,test,1,C,haborder.png,0,z,Thu Sep 26 2024 15:59:44 GMT-0500 (Central Daylight Time),588406.4000000004,CFD-BM-037-041-A.jpg,1900,solid,O,None,1516,8,1,56582.5,531823.9000000004,9999,ATS,B,21
17,test,1,C,mfborder.png,1,z,Thu Sep 26 2024 15:59:44 GMT-0500 (Central Daylight Time),591222.2000000002,CFD-BF-051-043-A.jpg,1600,dash,O,z,1187,2,1,59398.299999999814,531823.9000000004,9999,ATS,B,22
18,test,1,C,mfborder.png,1,z,Thu Sep 26 2024 15:59:44 GMT-0500 (Central Daylight Time),593521.1000000006,CFD-WF-026-008-A.jpg,1500,dash,O,z,774,3,1,61697.200000000186,531823.9000000004,9999,ATS,B,23
18,test,1,C,mfborder.png,0,m,Thu Sep 26 2024 15:59:44 GMT-0500 (Central Daylight Time),596254.0,CFD-BM-020-024-HC.jpg,1200,dash,O,None,1516,6,1,64430.09999999963,531823.9000000004,9999,ATS,B,24
0,test,2,C,mfborder.png,0,m,Thu Sep 26 2024 15:59:44 GMT-0500 (Central Daylight Time),604434.7000000002,CFD-BM-037-041-A.jpg,2000,dash,O,None,1516,5,1,3532.4000000003725,600902.2999999998,9999,ATS,B,1
0,test,2,C,mfborder.png,0,z,Thu Sep 26 2024 15:59:44 GMT-0500 (Central Daylight Time),607567.2999999998,CFD-WF-013-015-A.jpg,1600,dash,O,None,1516,2,1,6665.0,600902.2999999998,9999,ATS,B,2
1,test,2,C,haborder.png,1,m,Thu Sep 26 2024 15:59:44 GMT-0500 (Central Daylight Time),610167.2999999998,CFD-BM-020-024-HC.jpg,1600,solid,O,m,978,10,1,9265.0,600902.2999999998,9999,ATS,B,3
1,test,2,C,mfborder.png,0,m,Thu Sep 26 2024 15:59:44 GMT-0500 (Central Daylight Time),612898.4000000004,CFD-WM-009-009-A.jpg,1200,dash,O,None,1515,6,1,11996.100000000559,600902.2999999998,9999,ATS,B,4
2,test,2,C,haborder.png,1,z,Thu Sep 26 2024 15:59:44 GMT-0500 (Central Daylight Time),615714.2999999998,CFD-BF-051-043-A.jpg,1400,solid,O,z,1391,7,1,14812.0,600902.2999999998,9999,ATS,B,5
3,test,2,C,mfborder.png,1,z,Thu Sep 26 2024 15:59:44 GMT-0500 (Central Daylight Time),618346.7000000002,CFD-WF-013-015-A.jpg,1600,dash,O,z,1015,2,1,17444.400000000373,600902.2999999998,9999,ATS,B,6
4,test,2,C,haborder.png,1,m,Thu Sep 26 2024 15:59:44 GMT-0500 (Central Daylight Time),620146.2000000002,CFD-WM-011-006-HC.jpg,1000,solid,O,m,782,12,1,19243.900000000373,600902.2999999998,9999,ATS,B,7
4,test,2,C,mfborder.png,0,m,Thu Sep 26 2024 15:59:44 GMT-0500 (Central Daylight Time),622129.7000000002,CFD-BM-015-017-HC.jpg,1000,dash,O,z,967,4,1,21227.400000000373,600902.2999999998,9999,ATS,B,8
5,test,2,C,haborder.png,1,m,Thu Sep 26 2024 15:59:44 GMT-0500 (Central Daylight Time),624761.6000000006,CFD-BM-020-024-HC.jpg,1600,solid,O,m,1001,10,1,23859.300000000745,600902.2999999998,9999,ATS,B,9
5,test,2,C,haborder.png,0,z,Thu Sep 26 2024 15:59:44 GMT-0500 (Central Daylight Time),627027.5,CFD-BF-051-043-A.jpg,1400,solid,O,m,840,7,1,26125.200000000186,600902.2999999998,9999,ATS,B,10
6,test,2,C,haborder.png,1,m,Thu Sep 26 2024 15:59:44 GMT-0500 (Central Daylight Time),629160.2999999998,CFD-WM-011-006-HC.jpg,1000,solid,O,m,1110,12,1,28258.0,600902.2999999998,9999,ATS,B,11
7,test,2,C,haborder.png,1,z,Thu Sep 26 2024 15:59:44 GMT-0500 (Central Daylight Time),632325.7000000002,CFD-BF-050-012-A.jpg,1900,solid,O,z,1237,8,1,31423.400000000373,600902.2999999998,9999,ATS,B,12
8,test,2,C,haborder.png,1,z,Thu Sep 26 2024 15:59:44 GMT-0500 (Central Daylight Time),635008.2999999998,CFD-BF-050-012-A.jpg,1900,solid,O,z,760,8,1,34106.0,600902.2999999998,9999,ATS,B,13
9,test,2,C,mfborder.png,1,m,Thu Sep 26 2024 15:59:44 GMT-0500 (Central Daylight Time),637274.2000000002,CFD-WM-009-009-A.jpg,1200,dash,O,m,1041,6,1,36371.90000000037,600902.2999999998,9999,ATS,B,14
10,test,2,C,mfborder.png,1,z,Thu Sep 26 2024 15:59:44 GMT-0500 (Central Daylight Time),639973.4000000004,CFD-WF-011-006-HC.jpg,1700,dash,O,z,971,1,1,39071.10000000056,600902.2999999998,9999,ATS,B,15
11,test,2,C,mfborder.png,1,z,Thu Sep 26 2024 15:59:44 GMT-0500 (Central Daylight Time),642289.2999999998,CFD-BF-035-007-HC.jpg,1500,dash,O,z,792,3,1,41387.0,600902.2999999998,9999,ATS,B,16
12,test,2,C,haborder.png,1,m,Thu Sep 26 2024 15:59:44 GMT-0500 (Central Daylight Time),644571.9000000004,CFD-WM-011-006-HC.jpg,1500,solid,O,m,756,11,1,43669.60000000056,600902.2999999998,9999,ATS,B,17
12,test,2,C,mfborder.png,0,z,Thu Sep 26 2024 15:59:44 GMT-0500 (Central Daylight Time),647604.7000000002,CFD-BF-035-007-HC.jpg,1500,dash,O,None,1515,3,1,46702.40000000037,600902.2999999998,9999,ATS,B,18
12,test,2,C,mfborder.png,0,m,Thu Sep 26 2024 15:59:44 GMT-0500 (Central Daylight Time),650137.1000000006,CFD-BM-015-017-HC.jpg,1000,dash,O,None,1516,4,1,49234.800000000745,600902.2999999998,9999,ATS,B,19
12,test,2,C,haborder.png,0,z,Thu Sep 26 2024 15:59:44 GMT-0500 (Central Daylight Time),653319.0,CFD-WF-026-008-A.jpg,1700,solid,O,m,1453,9,1,52416.700000000186,600902.2999999998,9999,ATS,B,20
12,test,2,C,mfborder.png,0,m,Thu Sep 26 2024 15:59:44 GMT-0500 (Central Daylight Time),656851.4000000004,CFD-BM-037-041-A.jpg,2000,dash,O,None,1515,5,1,55949.10000000056,600902.2999999998,9999,ATS,B,21
13,test,2,C,haborder.png,1,z,Thu Sep 26 2024 15:59:44 GMT-0500 (Central Daylight Time),659733.7999999998,CFD-WF-026-008-A.jpg,1700,solid,O,z,1154,9,1,58831.5,600902.2999999998,9999,ATS,B,22
14,test,2,C,mfborder.png,1,z,Thu Sep 26 2024 15:59:44 GMT-0500 (Central Daylight Time),662432.9000000004,CFD-WF-011-006-HC.jpg,1700,dash,O,z,976,1,1,61530.60000000056,600902.2999999998,9999,ATS,B,23
15,test,2,C,haborder.png,1,m,Thu Sep 26 2024 15:59:44 GMT-0500 (Central Daylight Time),664749.0,CFD-WM-011-006-HC.jpg,1500,solid,O,m,788,11,1,63846.700000000186,600902.2999999998,9999,ATS,B,24
1,test,3,C,mfborder.png,1,m,Thu Sep 26 2024 15:59:44 GMT-0500 (Central Daylight Time),668747.5,CFD-BM-020-024-HC.jpg,1200,dash,O,m,1331,6,1,2548.899999999441,666198.6000000006,9999,ATS,B,1
2,test,3,C,mfborder.png,1,m,Thu Sep 26 2024 15:59:44 GMT-0500 (Central Daylight Time),671663.6000000006,CFD-WM-037-060-A.jpg,2000,dash,O,m,894,5,1,5465.0,666198.6000000006,9999,ATS,B,2
3,test,3,C,mfborder.png,1,z,Thu Sep 26 2024 15:59:44 GMT-0500 (Central Daylight Time),674079.2999999998,CFD-WF-026-008-A.jpg,1500,dash,O,z,894,3,1,7880.699999999255,666198.6000000006,9999,ATS,B,3
4,test,3,C,haborder.png,1,z,Thu Sep 26 2024 15:59:44 GMT-0500 (Central Daylight Time),677011.7999999998,CFD-BM-037-041-A.jpg,1900,solid,O,z,1013,8,1,10813.199999999255,666198.6000000006,9999,ATS,B,4
5,test,3,C,haborder.png,1,m,Thu Sep 26 2024 15:59:44 GMT-0500 (Central Daylight Time),680127.4000000004,CFD-BF-035-007-HC.jpg,1600,solid,O,m,1486,10,1,13928.799999999814,666198.6000000006,9999,ATS,B,5
6,test,3,C,mfborder.png,1,z,Thu Sep 26 2024 15:59:44 GMT-0500 (Central Daylight Time),682976.6000000006,CFD-BF-027-013-HC.jpg,1700,dash,O,z,1126,1,1,16778.0,666198.6000000006,9999,ATS,B,6
7,test,3,C,mfborder.png,1,z,Thu Sep 26 2024 15:59:44 GMT-0500 (Central Daylight Time),685492.4000000004,CFD-BF-051-043-A.jpg,1600,dash,O,z,889,2,1,19293.799999999814,666198.6000000006,9999,ATS,B,7
7,test,3,C,mfborder.png,0,m,Thu Sep 26 2024 15:59:44 GMT-0500 (Central Daylight Time),688391.6000000006,CFD-WM-037-060-A.jpg,2000,dash,O,z,869,5,1,22193.0,666198.6000000006,9999,ATS,B,8
7,test,3,C,mfborder.png,0,m,Thu Sep 26 2024 15:59:44 GMT-0500 (Central Daylight Time),690924.2000000002,CFD-WM-012-007-HC.jpg,1000,dash,O,None,1516,4,1,24725.599999999627,666198.6000000006,9999,ATS,B,9
8,test,3,C,haborder.png,1,z,Thu Sep 26 2024 15:59:44 GMT-0500 (Central Daylight Time),693656.6000000006,CFD-BM-037-041-A.jpg,1900,solid,O,z,801,8,1,27458.0,666198.6000000006,9999,ATS,B,10
9,test,3,C,haborder.png,1,m,Thu Sep 26 2024 15:59:44 GMT-0500 (Central Daylight Time),696400.4000000004,CFD-BF-035-007-HC.jpg,1600,solid,O,m,1127,10,1,30201.799999999814,666198.6000000006,9999,ATS,B,11
9,test,3,C,haborder.png,0,z,Thu Sep 26 2024 15:59:44 GMT-0500 (Central Daylight Time),698988.2000000002,CFD-WM-009-009-A.jpg,1400,solid,O,m,1172,7,1,32789.59999999963,666198.6000000006,9999,ATS,B,12
10,test,3,C,haborder.png,1,z,Thu Sep 26 2024 15:59:44 GMT-0500 (Central Daylight Time),701120.7999999998,CFD-WM-009-009-A.jpg,1400,solid,O,z,701,7,1,34922.199999999255,666198.6000000006,9999,ATS,B,13
11,test,3,C,haborder.png,1,m,Thu Sep 26 2024 15:59:44 GMT-0500 (Central Daylight Time),703870.0,CFD-WF-027-007-HC.jpg,1500,solid,O,m,1221,11,1,37671.39999999944,666198.6000000006,9999,ATS,B,14
12,test,3,C,haborder.png,1,m,Thu Sep 26 2024 15:59:44 GMT-0500 (Central Daylight Time),706003.9000000004,CFD-WF-011-006-HC.jpg,1000,solid,O,m,1115,12,1,39805.299999999814,666198.6000000006,9999,ATS,B,15
13,test,3,C,haborder.png,1,z,Thu Sep 26 2024 15:59:44 GMT-0500 (Central Daylight Time),708568.5,CFD-BM-041-048-A.jpg,1700,solid,O,z,843,9,1,42369.89999999944,666198.6000000006,9999,ATS,B,16
14,test,3,C,mfborder.png,1,z,Thu Sep 26 2024 15:59:44 GMT-0500 (Central Daylight Time),711317.9000000004,CFD-BF-051-043-A.jpg,1600,dash,O,z,1129,2,1,45119.299999999814,666198.6000000006,9999,ATS,B,17
14,test,3,C,mfborder.png,0,m,Thu Sep 26 2024 15:59:44 GMT-0500 (Central Daylight Time),714050.2999999998,CFD-BM-020-024-HC.jpg,1200,dash,O,None,1516,6,1,47851.699999999255,666198.6000000006,9999,ATS,B,18
15,test,3,C,haborder.png,1,m,Thu Sep 26 2024 15:59:44 GMT-0500 (Central Daylight Time),716067.4000000004,CFD-WF-011-006-HC.jpg,1000,solid,O,m,991,12,1,49868.799999999814,666198.6000000006,9999,ATS,B,19
16,test,3,C,mfborder.png,1,z,Thu Sep 26 2024 15:59:44 GMT-0500 (Central Daylight Time),719048.7999999998,CFD-BF-027-013-HC.jpg,1700,dash,O,z,1259,1,1,52850.199999999255,666198.6000000006,9999,ATS,B,20
17,test,3,C,mfborder.png,1,z,Thu Sep 26 2024 15:59:44 GMT-0500 (Central Daylight Time),721997.7000000002,CFD-WF-026-008-A.jpg,1500,dash,O,z,1421,3,1,55799.09999999963,666198.6000000006,9999,ATS,B,21
17,test,3,C,haborder.png,0,z,Thu Sep 26 2024 15:59:44 GMT-0500 (Central Daylight Time),724697.1000000006,CFD-BM-041-048-A.jpg,1700,solid,O,m,968,9,1,58498.5,666198.6000000006,9999,ATS,B,22
18,test,3,C,haborder.png,1,m,Thu Sep 26 2024 15:59:44 GMT-0500 (Central Daylight Time),727179.2999999998,CFD-WF-027-007-HC.jpg,1500,solid,O,m,956,11,1,60980.699999999255,666198.6000000006,9999,ATS,B,23
18,test,3,C,mfborder.png,0,m,Thu Sep 26 2024 15:59:44 GMT-0500 (Central Daylight Time),729545.6000000006,CFD-WM-012-007-HC.jpg,1000,dash,O,z,1334,4,1,63347.0,666198.6000000006,9999,ATS,B,24
1,test,4,C,haborder.png,1,z,Thu Sep 26 2024 15:59:44 GMT-0500 (Central Daylight Time),733694.1000000006,CFD-WF-026-008-A.jpg,1700,solid,O,z,1244,9,1,2964.5,730729.6000000006,9999,ATS,B,1
2,test,4,C,haborder.png,1,z,Thu Sep 26 2024 15:59:44 GMT-0500 (Central Daylight Time),736010.0,CFD-WF-026-008-A.jpg,1700,solid,O,z,599,9,1,5280.399999999441,730729.6000000006,9999,ATS,B,2
3,test,4,C,mfborder.png,1,m,Thu Sep 26 2024 15:59:44 GMT-0500 (Central Daylight Time),739108.9000000004,CFD-BM-037-041-A.jpg,2000,dash,O,m,1078,5,1,8379.299999999814,730729.6000000006,9999,ATS,B,3
4,test,4,C,haborder.png,1,m,Thu Sep 26 2024 15:59:44 GMT-0500 (Central Daylight Time),741908.1000000006,CFD-BM-020-024-HC.jpg,1600,solid,O,m,1181,10,1,11178.5,730729.6000000006,9999,ATS,B,4
4,test,4,C,mfborder.png,0,m,Thu Sep 26 2024 15:59:44 GMT-0500 (Central Daylight Time),743974.2999999998,CFD-BM-015-017-HC.jpg,1000,dash,O,z,1037,4,1,13244.699999999255,730729.6000000006,9999,ATS,B,5
5,test,4,C,mfborder.png,1,z,Thu Sep 26 2024 15:59:44 GMT-0500 (Central Daylight Time),746939.6000000006,CFD-BF-035-007-HC.jpg,1500,dash,O,z,1438,3,1,16210.0,730729.6000000006,9999,ATS,B,6
6,test,4,C,mfborder.png,1,z,Thu Sep 26 2024 15:59:44 GMT-0500 (Central Daylight Time),749439.0,CFD-BF-035-007-HC.jpg,1500,dash,O,z,970,3,1,18709.39999999944,730729.6000000006,9999,ATS,B,7
7,test,4,C,haborder.png,1,m,Thu Sep 26 2024 15:59:44 GMT-0500 (Central Daylight Time),751455.2000000002,CFD-WM-011-006-HC.jpg,1000,solid,O,m,994,12,1,20725.599999999627,730729.6000000006,9999,ATS,B,8
8,test,4,C,haborder.png,1,m,Thu Sep 26 2024 15:59:44 GMT-0500 (Central Daylight Time),753604.4000000004,CFD-WM-011-006-HC.jpg,1500,solid,O,m,630,11,1,22874.799999999814,730729.6000000006,9999,ATS,B,9
9,test,4,C,haborder.png,1,z,Thu Sep 26 2024 15:59:44 GMT-0500 (Central Daylight Time),756386.6000000006,CFD-BF-050-012-A.jpg,1900,solid,O,z,865,8,1,25657.0,730729.6000000006,9999,ATS,B,10
10,test,4,C,haborder.png,1,m,Thu Sep 26 2024 15:59:44 GMT-0500 (Central Daylight Time),759169.6000000006,CFD-BM-020-024-HC.jpg,1600,solid,O,m,1151,10,1,28440.0,730729.6000000006,9999,ATS,B,11
10,test,4,C,mfborder.png,0,m,Thu Sep 26 2024 15:59:44 GMT-0500 (Central Daylight Time),761352.1000000006,CFD-WM-009-009-A.jpg,1200,dash,O,z,960,6,1,30622.5,730729.6000000006,9999,ATS,B,12
11,test,4,C,haborder.png,1,z,Thu Sep 26 2024 15:59:44 GMT-0500 (Central Daylight Time),764017.7999999998,CFD-BF-051-043-A.jpg,1400,solid,O,z,1233,7,1,33288.199999999255,730729.6000000006,9999,ATS,B,13
11,test,4,C,mfborder.png,0,z,Thu Sep 26 2024 15:59:44 GMT-0500 (Central Daylight Time),767250.2000000002,CFD-WF-011-006-HC.jpg,1700,dash,O,None,1514,1,1,36520.59999999963,730729.6000000006,9999,ATS,B,14
11,test,4,C,haborder.png,0,z,Thu Sep 26 2024 15:59:44 GMT-0500 (Central Daylight Time),770682.5,CFD-BF-050-012-A.jpg,1900,solid,O,None,1516,8,1,39952.89999999944,730729.6000000006,9999,ATS,B,15
12,test,4,C,mfborder.png,1,z,Thu Sep 26 2024 15:59:44 GMT-0500 (Central Daylight Time),773549.4000000004,CFD-WF-013-015-A.jpg,1600,dash,O,z,1247,2,1,42819.799999999814,730729.6000000006,9999,ATS,B,16
13,test,4,C,haborder.png,1,m,Thu Sep 26 2024 15:59:44 GMT-0500 (Central Daylight Time),776247.2999999998,CFD-WM-011-006-HC.jpg,1500,solid,O,m,1169,11,1,45517.699999999255,730729.6000000006,9999,ATS,B,17
13,test,4,C,haborder.png,0,z,Thu Sep 26 2024 15:59:44 GMT-0500 (Central Daylight Time),778396.6000000006,CFD-BF-051-043-A.jpg,1400,solid,O,m,729,7,1,47667.0,730729.6000000006,9999,ATS,B,18
13,test,4,C,mfborder.png,0,m,Thu Sep 26 2024 15:59:44 GMT-0500 (Central Daylight Time),780929.1000000006,CFD-BM-015-017-HC.jpg,1000,dash,O,None,1516,4,1,50199.5,730729.6000000006,9999,ATS,B,19
13,test,4,C,mfborder.png,0,m,Thu Sep 26 2024 15:59:44 GMT-0500 (Central Daylight Time),783911.6000000006,CFD-BM-037-041-A.jpg,2000,dash,O,z,960,5,1,53182.0,730729.6000000006,9999,ATS,B,20
14,test,4,C,haborder.png,1,m,Thu Sep 26 2024 15:59:44 GMT-0500 (Central Daylight Time),785677.7000000002,CFD-WM-011-006-HC.jpg,1000,solid,O,m,738,12,1,54948.09999999963,730729.6000000006,9999,ATS,B,21
14,test,4,C,mfborder.png,0,m,Thu Sep 26 2024 15:59:44 GMT-0500 (Central Daylight Time),788210.1000000006,CFD-WM-009-009-A.jpg,1200,dash,O,z,1316,6,1,57480.5,730729.6000000006,9999,ATS,B,22
14,test,4,C,mfborder.png,0,z,Thu Sep 26 2024 15:59:44 GMT-0500 (Central Daylight Time),791342.7999999998,CFD-WF-013-015-A.jpg,1600,dash,O,None,1516,2,1,60613.199999999255,730729.6000000006,9999,ATS,B,23
15,test,4,C,mfborder.png,1,z,Thu Sep 26 2024 15:59:44 GMT-0500 (Central Daylight Time),794141.7999999998,CFD-WF-011-006-HC.jpg,1700,dash,O,z,1071,1,1,63412.199999999255,730729.6000000006,9999,ATS,B,24
