acc_sum,block,block_c,block_cond,con_img,correct,correct_response,datetime,endtime,face,jitter,line,project,response,response_time,row_sel,session_number,start_end,starttime,subject_id,task,task_vers,trial
0,prac,1,A,haborder.png,0,m,Fri Sep 06 2024 09:52:07 GMT-0500 (Central Daylight Time),60464.699999928474,CFD-BM-015-017-HC.jpg,1700,solid,O,None,1516,1,1,3998.7999999523163,56465.89999997616,7018,ATS,B,1
1,prac,1,A,haborder.png,1,z,Fri Sep 06 2024 09:52:07 GMT-0500 (Central Daylight Time),63363.89999997616,CFD-BF-050-012-A.jpg,1200,solid,O,z,905,6,1,6898.0,56465.89999997616,7018,ATS,B,2
2,prac,1,A,haborder.png,1,m,Fri Sep 06 2024 09:52:07 GMT-0500 (Central Daylight Time),66463.29999995232,CFD-WF-011-006-HC.jpg,1500,solid,O,m,810,11,1,9997.399999976158,56465.89999997616,7018,ATS,B,3
3,prac,1,A,haborder.png,1,z,Fri Sep 06 2024 09:52:07 GMT-0500 (Central Daylight Time),69945.09999990463,CFD-BM-037-041-A.jpg,1600,solid,O,z,1092,2,1,13479.199999928474,56465.89999997616,7018,ATS,B,4
4,prac,1,A,haborder.png,1,z,Fri Sep 06 2024 09:52:07 GMT-0500 (Central Daylight Time),73377.5,CFD-WM-009-009-A.jpg,1900,solid,O,z,741,8,1,16911.600000023842,56465.89999997616,7018,ATS,B,5
5,prac,1,A,haborder.png,1,m,Fri Sep 06 2024 09:52:07 GMT-0500 (Central Daylight Time),76942.89999997616,CFD-BF-035-007-HC.jpg,2000,solid,O,m,776,5,1,20477.0,56465.89999997616,7018,ATS,B,6
6,prac,1,A,haborder.png,1,m,Fri Sep 06 2024 09:52:07 GMT-0500 (Central Daylight Time),80375.29999995232,CFD-WM-012-007-HC.jpg,1700,solid,O,m,943,9,1,23909.399999976158,56465.89999997616,7018,ATS,B,7
7,prac,1,A,haborder.png,1,m,Fri Sep 06 2024 09:52:07 GMT-0500 (Central Daylight Time),83274.39999997616,CFD-WM-011-006-HC.jpg,1400,solid,O,m,707,7,1,26808.5,56465.89999997616,7018,ATS,B,8
8,prac,1,A,haborder.png,1,z,Fri Sep 06 2024 09:52:07 GMT-0500 (Central Daylight Time),85673.5,CFD-WF-013-015-A.jpg,1000,solid,O,z,607,12,1,29207.600000023842,56465.89999997616,7018,ATS,B,9
8,prac,1,A,haborder.png,0,z,Fri Sep 06 2024 09:52:07 GMT-0500 (Central Daylight Time),88789.29999995232,CFD-WF-026-008-A.jpg,1600,solid,O,m,720,10,1,32323.399999976158,56465.89999997616,7018,ATS,B,10
9,prac,1,A,haborder.png,1,z,Fri Sep 06 2024 09:52:07 GMT-0500 (Central Daylight Time),91355.0,CFD-BF-051-043-A.jpg,1000,solid,O,z,780,4,1,34889.10000002384,56465.89999997616,7018,ATS,B,11
10,prac,1,A,haborder.png,1,m,Fri Sep 06 2024 09:52:07 GMT-0500 (Central Daylight Time),94670.69999992847,CFD-BM-020-024-HC.jpg,1500,solid,O,m,1018,3,1,38204.799999952316,56465.89999997616,7018,ATS,B,12
1,prac,1,B,mfborder.png,1,z,Fri Sep 06 2024 09:52:07 GMT-0500 (Central Daylight Time),121662.19999992847,CFD-WF-027-007-HC.jpg,1900,dash,O,z,1102,8,1,3804.1999999284744,117858.0,7018,ATS,B,1
2,prac,1,B,mfborder.png,1,m,Fri Sep 06 2024 09:52:07 GMT-0500 (Central Daylight Time),125477.59999990463,CFD-WM-009-009-A.jpg,1700,dash,O,m,1328,9,1,7619.599999904633,117858.0,7018,ATS,B,2
3,prac,1,B,mfborder.png,1,z,Fri Sep 06 2024 09:52:07 GMT-0500 (Central Daylight Time),127960.29999995232,CFD-WF-011-006-HC.jpg,1000,dash,O,z,691,12,1,10102.299999952316,117858.0,7018,ATS,B,3
4,prac,1,B,mfborder.png,1,z,Fri Sep 06 2024 09:52:07 GMT-0500 (Central Daylight Time),131225.79999995232,CFD-BF-027-013-HC.jpg,1500,dash,O,z,973,3,1,13367.799999952316,117858.0,7018,ATS,B,4
5,prac,1,B,mfborder.png,1,z,Fri Sep 06 2024 09:52:07 GMT-0500 (Central Daylight Time),134458.39999997616,CFD-WF-026-008-A.jpg,1500,dash,O,z,940,11,1,16600.399999976158,117858.0,7018,ATS,B,5
6,prac,1,B,mfborder.png,1,m,Fri Sep 06 2024 09:52:07 GMT-0500 (Central Daylight Time),137457.29999995232,CFD-WM-012-007-HC.jpg,1600,dash,O,m,607,10,1,19599.299999952316,117858.0,7018,ATS,B,6
7,prac,1,B,mfborder.png,1,m,Fri Sep 06 2024 09:52:07 GMT-0500 (Central Daylight Time),140406.39999997616,CFD-BM-041-048-A.jpg,1600,dash,O,m,553,2,1,22548.399999976158,117858.0,7018,ATS,B,7
8,prac,1,B,mfborder.png,1,m,Fri Sep 06 2024 09:52:07 GMT-0500 (Central Daylight Time),143771.89999997616,CFD-BM-020-024-HC.jpg,1700,dash,O,m,871,1,1,25913.899999976158,117858.0,7018,ATS,B,8
9,prac,1,B,mfborder.png,1,z,Fri Sep 06 2024 09:52:07 GMT-0500 (Central Daylight Time),146854.39999997616,CFD-BF-035-007-HC.jpg,1400,dash,O,z,885,7,1,28996.399999976158,117858.0,7018,ATS,B,9
10,prac,1,B,mfborder.png,1,m,Fri Sep 06 2024 09:52:07 GMT-0500 (Central Daylight Time),149786.59999990463,CFD-WM-037-060-A.jpg,1200,dash,O,m,939,6,1,31928.599999904633,117858.0,7018,ATS,B,10
11,prac,1,B,mfborder.png,1,m,Fri Sep 06 2024 09:52:07 GMT-0500 (Central Daylight Time),153385.59999990463,CFD-BM-037-041-A.jpg,2000,dash,O,m,807,5,1,35527.59999990463,117858.0,7018,ATS,B,11
12,prac,1,B,mfborder.png,1,z,Fri Sep 06 2024 09:52:07 GMT-0500 (Central Daylight Time),155868.09999990463,CFD-BF-051-043-A.jpg,1000,dash,O,z,696,4,1,38010.09999990463,117858.0,7018,ATS,B,12
1,test,1,A,haborder.png,1,m,Fri Sep 06 2024 09:52:07 GMT-0500 (Central Daylight Time),178844.5,CFD-WM-011-006-HC.jpg,1400,solid,O,m,1097,7,1,2516.0,176328.5,7018,ATS,B,1
2,test,1,A,haborder.png,1,z,Fri Sep 06 2024 09:52:07 GMT-0500 (Central Daylight Time),180560.5,CFD-WF-013-015-A.jpg,1000,solid,O,z,685,12,1,4232.0,176328.5,7018,ATS,B,2
2,test,1,A,haborder.png,0,m,Fri Sep 06 2024 09:52:07 GMT-0500 (Central Daylight Time),184093.19999992847,CFD-BF-035-007-HC.jpg,2000,solid,O,None,1516,5,1,7764.699999928474,176328.5,7018,ATS,B,3
3,test,1,A,haborder.png,1,z,Fri Sep 06 2024 09:52:07 GMT-0500 (Central Daylight Time),186542.89999997616,CFD-WF-026-008-A.jpg,1600,solid,O,z,829,10,1,10214.399999976158,176328.5,7018,ATS,B,4
4,test,1,A,haborder.png,1,m,Fri Sep 06 2024 09:52:07 GMT-0500 (Central Daylight Time),189491.0,CFD-WM-012-007-HC.jpg,1700,solid,O,m,1128,9,1,13162.5,176328.5,7018,ATS,B,5
5,test,1,A,haborder.png,1,z,Fri Sep 06 2024 09:52:07 GMT-0500 (Central Daylight Time),191190.29999995232,CFD-BF-051-043-A.jpg,1000,solid,O,z,678,4,1,14861.799999952316,176328.5,7018,ATS,B,6
6,test,1,A,haborder.png,1,z,Fri Sep 06 2024 09:52:07 GMT-0500 (Central Daylight Time),194139.09999990463,CFD-WM-009-009-A.jpg,1900,solid,O,z,1032,8,1,17810.599999904633,176328.5,7018,ATS,B,7
7,test,1,A,haborder.png,1,m,Fri Sep 06 2024 09:52:07 GMT-0500 (Central Daylight Time),196405.5,CFD-BM-020-024-HC.jpg,1500,solid,O,m,746,3,1,20077.0,176328.5,7018,ATS,B,8
8,test,1,A,haborder.png,1,z,Fri Sep 06 2024 09:52:07 GMT-0500 (Central Daylight Time),198304.69999992847,CFD-BF-050-012-A.jpg,1200,solid,O,z,676,6,1,21976.199999928474,176328.5,7018,ATS,B,9
9,test,1,A,haborder.png,1,z,Fri Sep 06 2024 09:52:07 GMT-0500 (Central Daylight Time),200937.29999995232,CFD-WF-026-008-A.jpg,1600,solid,O,z,1009,10,1,24608.799999952316,176328.5,7018,ATS,B,10
10,test,1,A,haborder.png,1,z,Fri Sep 06 2024 09:52:07 GMT-0500 (Central Daylight Time),203153.19999992847,CFD-BM-037-041-A.jpg,1600,solid,O,z,593,2,1,26824.699999928474,176328.5,7018,ATS,B,11
11,test,1,A,haborder.png,1,z,Fri Sep 06 2024 09:52:07 GMT-0500 (Central Daylight Time),204736.09999990463,CFD-BF-051-043-A.jpg,1000,solid,O,z,552,4,1,28407.599999904633,176328.5,7018,ATS,B,12
12,test,1,A,haborder.png,1,z,Fri Sep 06 2024 09:52:07 GMT-0500 (Central Daylight Time),206785.39999997616,CFD-BF-050-012-A.jpg,1200,solid,O,z,817,6,1,30456.899999976158,176328.5,7018,ATS,B,13
13,test,1,A,haborder.png,1,m,Fri Sep 06 2024 09:52:07 GMT-0500 (Central Daylight Time),209251.39999997616,CFD-BM-015-017-HC.jpg,1700,solid,O,m,740,1,1,32922.89999997616,176328.5,7018,ATS,B,14
14,test,1,A,haborder.png,1,m,Fri Sep 06 2024 09:52:07 GMT-0500 (Central Daylight Time),211300.59999990463,CFD-WF-011-006-HC.jpg,1500,solid,O,m,530,11,1,34972.09999990463,176328.5,7018,ATS,B,15
15,test,1,A,haborder.png,1,z,Fri Sep 06 2024 09:52:07 GMT-0500 (Central Daylight Time),212916.79999995232,CFD-WF-013-015-A.jpg,1000,solid,O,z,596,12,1,36588.299999952316,176328.5,7018,ATS,B,16
16,test,1,A,haborder.png,1,z,Fri Sep 06 2024 09:52:07 GMT-0500 (Central Daylight Time),215466.09999990463,CFD-WM-009-009-A.jpg,1900,solid,O,z,625,8,1,39137.59999990463,176328.5,7018,ATS,B,17
17,test,1,A,haborder.png,1,m,Fri Sep 06 2024 09:52:07 GMT-0500 (Central Daylight Time),217998.5,CFD-BM-015-017-HC.jpg,1700,solid,O,m,804,1,1,41670.0,176328.5,7018,ATS,B,18
18,test,1,A,haborder.png,1,m,Fri Sep 06 2024 09:52:07 GMT-0500 (Central Daylight Time),220181.09999990463,CFD-WM-011-006-HC.jpg,1400,solid,O,m,755,7,1,43852.59999990463,176328.5,7018,ATS,B,19
19,test,1,A,haborder.png,1,z,Fri Sep 06 2024 09:52:07 GMT-0500 (Central Daylight Time),222530.59999990463,CFD-BM-037-041-A.jpg,1600,solid,O,z,716,2,1,46202.09999990463,176328.5,7018,ATS,B,20
20,test,1,A,haborder.png,1,m,Fri Sep 06 2024 09:52:07 GMT-0500 (Central Daylight Time),224913.09999990463,CFD-WM-012-007-HC.jpg,1700,solid,O,m,660,9,1,48584.59999990463,176328.5,7018,ATS,B,21
21,test,1,A,haborder.png,1,m,Fri Sep 06 2024 09:52:07 GMT-0500 (Central Daylight Time),227978.69999992847,CFD-BF-035-007-HC.jpg,2000,solid,O,m,1040,5,1,51650.199999928474,176328.5,7018,ATS,B,22
22,test,1,A,haborder.png,1,m,Fri Sep 06 2024 09:52:07 GMT-0500 (Central Daylight Time),230128.19999992847,CFD-WF-011-006-HC.jpg,1500,solid,O,m,627,11,1,53799.699999928474,176328.5,7018,ATS,B,23
23,test,1,A,haborder.png,1,m,Fri Sep 06 2024 09:52:07 GMT-0500 (Central Daylight Time),232627.29999995232,CFD-BM-020-024-HC.jpg,1500,solid,O,m,974,3,1,56298.799999952316,176328.5,7018,ATS,B,24
1,test,1,B,mfborder.png,1,z,Fri Sep 06 2024 09:52:07 GMT-0500 (Central Daylight Time),242840.69999992847,CFD-WF-027-007-HC.jpg,1900,dash,O,z,751,8,1,2682.399999976158,240158.29999995232,7018,ATS,B,1
2,test,1,B,mfborder.png,1,z,Fri Sep 06 2024 09:52:07 GMT-0500 (Central Daylight Time),245339.89999997616,CFD-WF-027-007-HC.jpg,1900,dash,O,z,581,8,1,5181.600000023842,240158.29999995232,7018,ATS,B,2
3,test,1,B,mfborder.png,1,z,Fri Sep 06 2024 09:52:07 GMT-0500 (Central Daylight Time),247106.19999992847,CFD-WF-011-006-HC.jpg,1000,dash,O,z,741,12,1,6947.899999976158,240158.29999995232,7018,ATS,B,3
4,test,1,B,mfborder.png,1,m,Fri Sep 06 2024 09:52:07 GMT-0500 (Central Daylight Time),249338.59999990463,CFD-WM-012-007-HC.jpg,1600,dash,O,m,600,10,1,9180.299999952316,240158.29999995232,7018,ATS,B,4
5,test,1,B,mfborder.png,1,z,Fri Sep 06 2024 09:52:07 GMT-0500 (Central Daylight Time),251121.59999990463,CFD-BF-051-043-A.jpg,1000,dash,O,z,758,4,1,10963.299999952316,240158.29999995232,7018,ATS,B,5
6,test,1,B,mfborder.png,1,m,Fri Sep 06 2024 09:52:07 GMT-0500 (Central Daylight Time),253604.0,CFD-BM-020-024-HC.jpg,1700,dash,O,m,765,1,1,13445.700000047684,240158.29999995232,7018,ATS,B,6
7,test,1,B,mfborder.png,1,m,Fri Sep 06 2024 09:52:07 GMT-0500 (Central Daylight Time),256403.09999990463,CFD-BM-041-048-A.jpg,1600,dash,O,m,1174,2,1,16244.799999952316,240158.29999995232,7018,ATS,B,7
8,test,1,B,mfborder.png,1,z,Fri Sep 06 2024 09:52:07 GMT-0500 (Central Daylight Time),258702.59999990463,CFD-BF-027-013-HC.jpg,1500,dash,O,z,779,3,1,18544.299999952316,240158.29999995232,7018,ATS,B,8
9,test,1,B,mfborder.png,1,z,Fri Sep 06 2024 09:52:07 GMT-0500 (Central Daylight Time),261034.89999997616,CFD-WF-026-008-A.jpg,1500,dash,O,z,816,11,1,20876.600000023842,240158.29999995232,7018,ATS,B,9
10,test,1,B,mfborder.png,1,z,Fri Sep 06 2024 09:52:07 GMT-0500 (Central Daylight Time),263151.0,CFD-WF-026-008-A.jpg,1500,dash,O,z,594,11,1,22992.700000047684,240158.29999995232,7018,ATS,B,10
11,test,1,B,mfborder.png,1,z,Fri Sep 06 2024 09:52:07 GMT-0500 (Central Daylight Time),265167.09999990463,CFD-BF-035-007-HC.jpg,1400,dash,O,z,593,7,1,25008.799999952316,240158.29999995232,7018,ATS,B,11
12,test,1,B,mfborder.png,1,m,Fri Sep 06 2024 09:52:07 GMT-0500 (Central Daylight Time),267532.7999999523,CFD-WM-009-009-A.jpg,1700,dash,O,m,646,9,1,27374.5,240158.29999995232,7018,ATS,B,12
13,test,1,B,mfborder.png,1,z,Fri Sep 06 2024 09:52:07 GMT-0500 (Central Daylight Time),269665.59999990463,CFD-BF-051-043-A.jpg,1000,dash,O,z,1100,4,1,29507.299999952316,240158.29999995232,7018,ATS,B,13
14,test,1,B,mfborder.png,1,m,Fri Sep 06 2024 09:52:07 GMT-0500 (Central Daylight Time),272015.0,CFD-WM-009-009-A.jpg,1700,dash,O,m,620,9,1,31856.700000047684,240158.29999995232,7018,ATS,B,14
15,test,1,B,mfborder.png,1,m,Fri Sep 06 2024 09:52:07 GMT-0500 (Central Daylight Time),274280.89999997616,CFD-BM-041-048-A.jpg,1600,dash,O,m,636,2,1,34122.60000002384,240158.29999995232,7018,ATS,B,15
16,test,1,B,mfborder.png,1,m,Fri Sep 06 2024 09:52:07 GMT-0500 (Central Daylight Time),276263.5,CFD-WM-037-060-A.jpg,1200,dash,O,m,760,6,1,36105.200000047684,240158.29999995232,7018,ATS,B,16
17,test,1,B,mfborder.png,1,m,Fri Sep 06 2024 09:52:07 GMT-0500 (Central Daylight Time),278879.2999999523,CFD-BM-037-041-A.jpg,2000,dash,O,m,593,5,1,38721.0,240158.29999995232,7018,ATS,B,17
18,test,1,B,mfborder.png,1,m,Fri Sep 06 2024 09:52:07 GMT-0500 (Central Daylight Time),281062.0,CFD-WM-012-007-HC.jpg,1600,dash,O,m,555,10,1,40903.700000047684,240158.29999995232,7018,ATS,B,18
19,test,1,B,mfborder.png,1,m,Fri Sep 06 2024 09:52:07 GMT-0500 (Central Daylight Time),283111.59999990463,CFD-WM-037-060-A.jpg,1200,dash,O,m,820,6,1,42953.299999952316,240158.29999995232,7018,ATS,B,19
20,test,1,B,mfborder.png,1,z,Fri Sep 06 2024 09:52:07 GMT-0500 (Central Daylight Time),284811.0,CFD-WF-011-006-HC.jpg,1000,dash,O,z,675,12,1,44652.700000047684,240158.29999995232,7018,ATS,B,20
21,test,1,B,mfborder.png,1,m,Fri Sep 06 2024 09:52:07 GMT-0500 (Central Daylight Time),287576.6999999285,CFD-BM-037-041-A.jpg,2000,dash,O,m,736,5,1,47418.39999997616,240158.29999995232,7018,ATS,B,21
22,test,1,B,mfborder.png,1,z,Fri Sep 06 2024 09:52:07 GMT-0500 (Central Daylight Time),289792.89999997616,CFD-BF-027-013-HC.jpg,1500,dash,O,z,694,3,1,49634.60000002384,240158.29999995232,7018,ATS,B,22
23,test,1,B,mfborder.png,1,z,Fri Sep 06 2024 09:52:07 GMT-0500 (Central Daylight Time),291742.09999990463,CFD-BF-035-007-HC.jpg,1400,dash,O,z,521,7,1,51583.799999952316,240158.29999995232,7018,ATS,B,23
24,test,1,B,mfborder.png,1,m,Fri Sep 06 2024 09:52:07 GMT-0500 (Central Daylight Time),294291.0,CFD-BM-020-024-HC.jpg,1700,dash,O,m,832,1,1,54132.700000047684,240158.29999995232,7018,ATS,B,24
1,2,1,C,mfborder.png,1,z,Fri Sep 06 2024 09:52:07 GMT-0500 (Central Daylight Time),320766.39999997616,CFD-WF-013-015-A.jpg,1500,solid,O,z,1119,prac,1,3415.8000000715256,317350.59999990463,7018,ATS,B,1
1,11,1,C,haborder.png,0,m,Fri Sep 06 2024 09:52:07 GMT-0500 (Central Daylight Time),324065.39999997616,CFD-WM-011-006-HC.jpg,1000,dash,O,None,1516,prac,1,6714.800000071526,317350.59999990463,7018,ATS,B,2
1,5,1,C,mfborder.png,0,m,Fri Sep 06 2024 09:52:07 GMT-0500 (Central Daylight Time),326914.5,CFD-BM-037-041-A.jpg,1200,dash,O,z,864,prac,1,9563.900000095367,317350.59999990463,7018,ATS,B,3
2,4,1,C,mfborder.png,1,m,Fri Sep 06 2024 09:52:07 GMT-0500 (Central Daylight Time),330563.39999997616,CFD-BM-015-017-HC.jpg,2000,solid,O,m,865,prac,1,13212.800000071526,317350.59999990463,7018,ATS,B,4
3,10,1,C,haborder.png,1,m,Fri Sep 06 2024 09:52:07 GMT-0500 (Central Daylight Time),333745.59999990463,CFD-BM-020-024-HC.jpg,1500,solid,O,m,898,prac,1,16395.0,317350.59999990463,7018,ATS,B,5
4,8,1,C,haborder.png,1,z,Fri Sep 06 2024 09:52:07 GMT-0500 (Central Daylight Time),337444.2999999523,CFD-BF-050-012-A.jpg,1700,solid,O,z,1204,prac,1,20093.700000047684,317350.59999990463,7018,ATS,B,6
5,12,1,C,haborder.png,1,m,Fri Sep 06 2024 09:52:07 GMT-0500 (Central Daylight Time),340826.5,CFD-WM-011-006-HC.jpg,1400,solid,O,m,1189,prac,1,23475.900000095367,317350.59999990463,7018,ATS,B,7
5,9,1,C,haborder.png,0,z,Fri Sep 06 2024 09:52:07 GMT-0500 (Central Daylight Time),344725.5,CFD-WF-026-008-A.jpg,1600,dash,O,None,1516,prac,1,27374.900000095367,317350.59999990463,7018,ATS,B,8
6,3,1,C,mfborder.png,1,z,Fri Sep 06 2024 09:52:07 GMT-0500 (Central Daylight Time),347774.59999990463,CFD-BF-035-007-HC.jpg,1000,dash,O,z,1252,prac,1,30424.0,317350.59999990463,7018,ATS,B,9
7,1,1,C,mfborder.png,1,z,Fri Sep 06 2024 09:52:07 GMT-0500 (Central Daylight Time),351090.0,CFD-WF-011-006-HC.jpg,1600,dash,O,z,923,prac,1,33739.40000009537,317350.59999990463,7018,ATS,B,10
7,7,1,C,haborder.png,0,z,Fri Sep 06 2024 09:52:07 GMT-0500 (Central Daylight Time),355405.39999997616,CFD-BF-051-043-A.jpg,1900,dash,O,None,1505,prac,1,38054.800000071526,317350.59999990463,7018,ATS,B,11
8,6,1,C,mfborder.png,1,m,Fri Sep 06 2024 09:52:07 GMT-0500 (Central Daylight Time),358754.2999999523,CFD-WM-009-009-A.jpg,1700,solid,O,m,864,prac,1,41403.700000047684,317350.59999990463,7018,ATS,B,12
0,test,1,C,haborder.png,0,z,Fri Sep 06 2024 09:52:07 GMT-0500 (Central Daylight Time),380997.59999990463,CFD-BM-037-041-A.jpg,1900,solid,O,m,838,8,1,2766.0999999046326,378231.5,7018,ATS,B,1
0,test,1,C,mfborder.png,0,z,Fri Sep 06 2024 09:52:07 GMT-0500 (Central Daylight Time),384229.7999999523,CFD-BF-027-013-HC.jpg,1700,dash,O,None,1516,1,1,5998.299999952316,378231.5,7018,ATS,B,2
1,test,1,C,haborder.png,1,m,Fri Sep 06 2024 09:52:07 GMT-0500 (Central Daylight Time),387245.5,CFD-BF-035-007-HC.jpg,1600,solid,O,m,1396,10,1,9014.0,378231.5,7018,ATS,B,3
2,test,1,C,mfborder.png,1,m,Fri Sep 06 2024 09:52:07 GMT-0500 (Central Daylight Time),389527.89999997616,CFD-BM-020-024-HC.jpg,1200,dash,O,m,1060,6,1,11296.399999976158,378231.5,7018,ATS,B,4
2,test,1,C,mfborder.png,0,z,Fri Sep 06 2024 09:52:07 GMT-0500 (Central Daylight Time),392660.5,CFD-BF-051-043-A.jpg,1600,dash,O,None,1516,2,1,14429.0,378231.5,7018,ATS,B,5
3,test,1,C,haborder.png,1,m,Fri Sep 06 2024 09:52:07 GMT-0500 (Central Daylight Time),395759.39999997616,CFD-BF-035-007-HC.jpg,1600,solid,O,m,1469,10,1,17527.899999976158,378231.5,7018,ATS,B,6
4,test,1,C,mfborder.png,1,z,Fri Sep 06 2024 09:52:07 GMT-0500 (Central Daylight Time),398725.1999999285,CFD-BF-051-043-A.jpg,1600,dash,O,z,1346,2,1,20493.699999928474,378231.5,7018,ATS,B,7
5,test,1,C,haborder.png,1,m,Fri Sep 06 2024 09:52:07 GMT-0500 (Central Daylight Time),401357.5,CFD-WF-027-007-HC.jpg,1500,solid,O,m,1109,11,1,23126.0,378231.5,7018,ATS,B,8
6,test,1,C,mfborder.png,1,m,Fri Sep 06 2024 09:52:07 GMT-0500 (Central Daylight Time),403640.2999999523,CFD-BM-020-024-HC.jpg,1200,dash,O,m,1060,6,1,25408.799999952316,378231.5,7018,ATS,B,9
7,test,1,C,mfborder.png,1,m,Fri Sep 06 2024 09:52:07 GMT-0500 (Central Daylight Time),407139.0,CFD-WM-037-060-A.jpg,2000,dash,O,m,1481,5,1,28907.5,378231.5,7018,ATS,B,10
8,test,1,C,mfborder.png,1,m,Fri Sep 06 2024 09:52:07 GMT-0500 (Central Daylight Time),408872.1999999285,CFD-WM-012-007-HC.jpg,1000,dash,O,m,710,4,1,30640.699999928474,378231.5,7018,ATS,B,11
9,test,1,C,haborder.png,1,z,Fri Sep 06 2024 09:52:07 GMT-0500 (Central Daylight Time),411187.89999997616,CFD-WM-009-009-A.jpg,1400,solid,O,z,889,7,1,32956.39999997616,378231.5,7018,ATS,B,12
9,test,1,C,haborder.png,0,m,Fri Sep 06 2024 09:52:07 GMT-0500 (Central Daylight Time),413720.89999997616,CFD-WF-011-006-HC.jpg,1000,solid,O,None,1515,12,1,35489.39999997616,378231.5,7018,ATS,B,13
9,test,1,C,haborder.png,0,z,Fri Sep 06 2024 09:52:07 GMT-0500 (Central Daylight Time),416952.6999999285,CFD-BM-041-048-A.jpg,1700,solid,O,None,1516,9,1,38721.199999928474,378231.5,7018,ATS,B,14
10,test,1,C,haborder.png,1,z,Fri Sep 06 2024 09:52:07 GMT-0500 (Central Daylight Time),419402.1999999285,CFD-WM-009-009-A.jpg,1400,solid,O,z,1017,7,1,41170.699999928474,378231.5,7018,ATS,B,15
11,test,1,C,mfborder.png,1,z,Fri Sep 06 2024 09:52:07 GMT-0500 (Central Daylight Time),422001.1999999285,CFD-BF-027-013-HC.jpg,1700,dash,O,z,867,1,1,43769.699999928474,378231.5,7018,ATS,B,16
11,test,1,C,mfborder.png,0,z,Fri Sep 06 2024 09:52:07 GMT-0500 (Central Daylight Time),424666.89999997616,CFD-WF-026-008-A.jpg,1500,dash,O,m,1134,3,1,46435.39999997616,378231.5,7018,ATS,B,17
12,test,1,C,haborder.png,1,m,Fri Sep 06 2024 09:52:07 GMT-0500 (Central Daylight Time),426682.89999997616,CFD-WF-011-006-HC.jpg,1000,solid,O,m,983,12,1,48451.39999997616,378231.5,7018,ATS,B,18
13,test,1,C,haborder.png,1,z,Fri Sep 06 2024 09:52:07 GMT-0500 (Central Daylight Time),429549.89999997616,CFD-BM-041-048-A.jpg,1700,solid,O,z,1147,9,1,51318.39999997616,378231.5,7018,ATS,B,19
14,test,1,C,mfborder.png,1,m,Fri Sep 06 2024 09:52:07 GMT-0500 (Central Daylight Time),432681.09999990463,CFD-WM-037-060-A.jpg,2000,dash,O,m,1109,5,1,54449.59999990463,378231.5,7018,ATS,B,20
15,test,1,C,mfborder.png,1,m,Fri Sep 06 2024 09:52:07 GMT-0500 (Central Daylight Time),434330.89999997616,CFD-WM-012-007-HC.jpg,1000,dash,O,m,617,4,1,56099.39999997616,378231.5,7018,ATS,B,21
16,test,1,C,mfborder.png,1,z,Fri Sep 06 2024 09:52:07 GMT-0500 (Central Daylight Time),436679.7999999523,CFD-WF-026-008-A.jpg,1500,dash,O,z,819,3,1,58448.299999952316,378231.5,7018,ATS,B,22
16,test,1,C,haborder.png,0,m,Fri Sep 06 2024 09:52:07 GMT-0500 (Central Daylight Time),439145.39999997616,CFD-WF-027-007-HC.jpg,1500,solid,O,z,942,11,1,60913.89999997616,378231.5,7018,ATS,B,23
16,test,1,C,haborder.png,0,z,Fri Sep 06 2024 09:52:07 GMT-0500 (Central Daylight Time),441794.89999997616,CFD-BM-037-041-A.jpg,1900,solid,O,m,717,8,1,63563.39999997616,378231.5,7018,ATS,B,24
1,test,2,C,haborder.png,1,z,Fri Sep 06 2024 09:52:07 GMT-0500 (Central Daylight Time),447843.0,CFD-BF-050-012-A.jpg,1900,solid,O,z,1091,8,1,3015.600000023842,444827.39999997616,7018,ATS,B,1
2,test,2,C,haborder.png,1,m,Fri Sep 06 2024 09:52:07 GMT-0500 (Central Daylight Time),450459.0,CFD-WM-011-006-HC.jpg,1500,solid,O,m,1083,11,1,5631.600000023842,444827.39999997616,7018,ATS,B,2
3,test,2,C,haborder.png,1,m,Fri Sep 06 2024 09:52:07 GMT-0500 (Central Daylight Time),452174.89999997616,CFD-WM-011-006-HC.jpg,1000,solid,O,m,694,12,1,7347.5,444827.39999997616,7018,ATS,B,3
4,test,2,C,mfborder.png,1,z,Fri Sep 06 2024 09:52:07 GMT-0500 (Central Daylight Time),454474.09999990463,CFD-WF-013-015-A.jpg,1600,dash,O,z,665,2,1,9646.699999928474,444827.39999997616,7018,ATS,B,4
5,test,2,C,mfborder.png,1,z,Fri Sep 06 2024 09:52:07 GMT-0500 (Central Daylight Time),456806.7999999523,CFD-BF-035-007-HC.jpg,1500,dash,O,z,811,3,1,11979.399999976158,444827.39999997616,7018,ATS,B,5
6,test,2,C,mfborder.png,1,z,Fri Sep 06 2024 09:52:07 GMT-0500 (Central Daylight Time),459222.6999999285,CFD-WF-011-006-HC.jpg,1700,dash,O,z,686,1,1,14395.299999952316,444827.39999997616,7018,ATS,B,6
6,test,2,C,haborder.png,0,z,Fri Sep 06 2024 09:52:07 GMT-0500 (Central Daylight Time),461855.2999999523,CFD-WF-026-008-A.jpg,1700,solid,O,m,903,9,1,17027.899999976158,444827.39999997616,7018,ATS,B,7
7,test,2,C,haborder.png,1,m,Fri Sep 06 2024 09:52:07 GMT-0500 (Central Daylight Time),464187.7999999523,CFD-WM-011-006-HC.jpg,1500,solid,O,m,814,11,1,19360.399999976158,444827.39999997616,7018,ATS,B,8
8,test,2,C,mfborder.png,1,m,Fri Sep 06 2024 09:52:07 GMT-0500 (Central Daylight Time),466586.7999999523,CFD-WM-009-009-A.jpg,1200,dash,O,m,1182,6,1,21759.399999976158,444827.39999997616,7018,ATS,B,9
9,test,2,C,haborder.png,1,z,Fri Sep 06 2024 09:52:07 GMT-0500 (Central Daylight Time),469069.89999997616,CFD-WF-026-008-A.jpg,1700,solid,O,z,753,9,1,24242.5,444827.39999997616,7018,ATS,B,10
10,test,2,C,mfborder.png,1,m,Fri Sep 06 2024 09:52:07 GMT-0500 (Central Daylight Time),471435.2999999523,CFD-WM-009-009-A.jpg,1200,dash,O,m,1149,6,1,26607.899999976158,444827.39999997616,7018,ATS,B,11
11,test,2,C,haborder.png,1,m,Fri Sep 06 2024 09:52:07 GMT-0500 (Central Daylight Time),473934.6999999285,CFD-BM-020-024-HC.jpg,1600,solid,O,m,871,10,1,29107.299999952316,444827.39999997616,7018,ATS,B,12
12,test,2,C,mfborder.png,1,z,Fri Sep 06 2024 09:52:07 GMT-0500 (Central Daylight Time),476433.89999997616,CFD-WF-011-006-HC.jpg,1700,dash,O,z,776,1,1,31606.5,444827.39999997616,7018,ATS,B,13
13,test,2,C,mfborder.png,1,m,Fri Sep 06 2024 09:52:07 GMT-0500 (Central Daylight Time),479266.6999999285,CFD-BM-037-041-A.jpg,2000,dash,O,m,808,5,1,34439.299999952316,444827.39999997616,7018,ATS,B,14
14,test,2,C,mfborder.png,1,m,Fri Sep 06 2024 09:52:07 GMT-0500 (Central Daylight Time),480916.09999990463,CFD-BM-015-017-HC.jpg,1000,dash,O,m,624,4,1,36088.699999928474,444827.39999997616,7018,ATS,B,15
15,test,2,C,mfborder.png,1,m,Fri Sep 06 2024 09:52:07 GMT-0500 (Central Daylight Time),483581.59999990463,CFD-BM-037-041-A.jpg,2000,dash,O,m,639,5,1,38754.199999928474,444827.39999997616,7018,ATS,B,16
16,test,2,C,mfborder.png,1,z,Fri Sep 06 2024 09:52:07 GMT-0500 (Central Daylight Time),485831.09999990463,CFD-WF-013-015-A.jpg,1600,dash,O,z,628,2,1,41003.699999928474,444827.39999997616,7018,ATS,B,17
16,test,2,C,haborder.png,0,z,Fri Sep 06 2024 09:52:07 GMT-0500 (Central Daylight Time),488746.7999999523,CFD-BF-050-012-A.jpg,1900,solid,O,m,999,8,1,43919.39999997616,444827.39999997616,7018,ATS,B,18
16,test,2,C,mfborder.png,0,m,Fri Sep 06 2024 09:52:07 GMT-0500 (Central Daylight Time),491279.59999990463,CFD-BM-015-017-HC.jpg,1000,dash,O,None,1515,4,1,46452.199999928474,444827.39999997616,7018,ATS,B,19
17,test,2,C,haborder.png,1,z,Fri Sep 06 2024 09:52:07 GMT-0500 (Central Daylight Time),493628.7999999523,CFD-BF-051-043-A.jpg,1400,solid,O,z,923,7,1,48801.39999997616,444827.39999997616,7018,ATS,B,20
18,test,2,C,mfborder.png,1,z,Fri Sep 06 2024 09:52:07 GMT-0500 (Central Daylight Time),495961.1999999285,CFD-BF-035-007-HC.jpg,1500,dash,O,z,801,3,1,51133.799999952316,444827.39999997616,7018,ATS,B,21
19,test,2,C,haborder.png,1,m,Fri Sep 06 2024 09:52:07 GMT-0500 (Central Daylight Time),498477.0,CFD-BM-020-024-HC.jpg,1600,solid,O,m,889,10,1,53649.60000002384,444827.39999997616,7018,ATS,B,22
20,test,2,C,haborder.png,1,m,Fri Sep 06 2024 09:52:07 GMT-0500 (Central Daylight Time),500293.1999999285,CFD-WM-011-006-HC.jpg,1000,solid,O,m,788,12,1,55465.799999952316,444827.39999997616,7018,ATS,B,23
21,test,2,C,haborder.png,1,z,Fri Sep 06 2024 09:52:07 GMT-0500 (Central Daylight Time),502375.89999997616,CFD-BF-051-043-A.jpg,1400,solid,O,z,660,7,1,57548.5,444827.39999997616,7018,ATS,B,24
1,test,3,C,mfborder.png,1,m,Fri Sep 06 2024 09:52:07 GMT-0500 (Central Daylight Time),507207.7999999523,CFD-BM-020-024-HC.jpg,1200,dash,O,m,1161,6,1,2382.7000000476837,504825.09999990463,7018,ATS,B,1
1,test,3,C,haborder.png,0,z,Fri Sep 06 2024 09:52:07 GMT-0500 (Central Daylight Time),510390.1999999285,CFD-BM-037-041-A.jpg,1900,solid,O,m,1254,8,1,5565.100000023842,504825.09999990463,7018,ATS,B,2
2,test,3,C,haborder.png,1,z,Fri Sep 06 2024 09:52:07 GMT-0500 (Central Daylight Time),512739.09999990463,CFD-WM-009-009-A.jpg,1400,solid,O,z,932,7,1,7914.0,504825.09999990463,7018,ATS,B,3
3,test,3,C,mfborder.png,1,m,Fri Sep 06 2024 09:52:07 GMT-0500 (Central Daylight Time),515988.1999999285,CFD-WM-037-060-A.jpg,2000,dash,O,m,1223,5,1,11163.100000023842,504825.09999990463,7018,ATS,B,4
3,test,3,C,haborder.png,0,m,Fri Sep 06 2024 09:52:07 GMT-0500 (Central Daylight Time),518737.2999999523,CFD-WF-027-007-HC.jpg,1500,solid,O,z,1217,11,1,13912.200000047684,504825.09999990463,7018,ATS,B,5
4,test,3,C,haborder.png,1,z,Fri Sep 06 2024 09:52:07 GMT-0500 (Central Daylight Time),521419.7999999523,CFD-BM-041-048-A.jpg,1700,solid,O,z,956,9,1,16594.700000047684,504825.09999990463,7018,ATS,B,6
5,test,3,C,mfborder.png,1,m,Fri Sep 06 2024 09:52:07 GMT-0500 (Central Daylight Time),523469.2999999523,CFD-BM-020-024-HC.jpg,1200,dash,O,m,821,6,1,18644.200000047684,504825.09999990463,7018,ATS,B,7
5,test,3,C,haborder.png,0,m,Fri Sep 06 2024 09:52:07 GMT-0500 (Central Daylight Time),525485.2999999523,CFD-WF-011-006-HC.jpg,1000,solid,O,z,988,12,1,20660.200000047684,504825.09999990463,7018,ATS,B,8
5,test,3,C,mfborder.png,0,z,Fri Sep 06 2024 09:52:07 GMT-0500 (Central Daylight Time),528034.5999999046,CFD-WF-026-008-A.jpg,1500,dash,O,m,1024,3,1,23209.5,504825.09999990463,7018,ATS,B,9
5,test,3,C,haborder.png,0,z,Fri Sep 06 2024 09:52:07 GMT-0500 (Central Daylight Time),530967.3999999762,CFD-WM-009-009-A.jpg,1400,solid,O,None,1516,7,1,26142.300000071526,504825.09999990463,7018,ATS,B,10
6,test,3,C,haborder.png,1,z,Fri Sep 06 2024 09:52:07 GMT-0500 (Central Daylight Time),534182.3999999762,CFD-BM-037-041-A.jpg,1900,solid,O,z,1295,8,1,29357.300000071526,504825.09999990463,7018,ATS,B,11
7,test,3,C,haborder.png,1,m,Fri Sep 06 2024 09:52:07 GMT-0500 (Central Daylight Time),536781.5999999046,CFD-BF-035-007-HC.jpg,1600,solid,O,m,971,10,1,31956.5,504825.09999990463,7018,ATS,B,12
8,test,3,C,haborder.png,1,m,Fri Sep 06 2024 09:52:07 GMT-0500 (Central Daylight Time),538964.5,CFD-WF-011-006-HC.jpg,1000,solid,O,m,1156,12,1,34139.40000009537,504825.09999990463,7018,ATS,B,13
9,test,3,C,mfborder.png,1,z,Fri Sep 06 2024 09:52:07 GMT-0500 (Central Daylight Time),541380.5,CFD-BF-027-013-HC.jpg,1700,dash,O,z,689,1,1,36555.40000009537,504825.09999990463,7018,ATS,B,14
10,test,3,C,mfborder.png,1,z,Fri Sep 06 2024 09:52:07 GMT-0500 (Central Daylight Time),543762.7999999523,CFD-BF-051-043-A.jpg,1600,dash,O,z,750,2,1,38937.700000047684,504825.09999990463,7018,ATS,B,15
11,test,3,C,mfborder.png,1,m,Fri Sep 06 2024 09:52:07 GMT-0500 (Central Daylight Time),546745.2999999523,CFD-WM-037-060-A.jpg,2000,dash,O,m,951,5,1,41920.200000047684,504825.09999990463,7018,ATS,B,16
12,test,3,C,mfborder.png,1,m,Fri Sep 06 2024 09:52:07 GMT-0500 (Central Daylight Time),548528.0,CFD-WM-012-007-HC.jpg,1000,dash,O,m,761,4,1,43702.90000009537,504825.09999990463,7018,ATS,B,17
13,test,3,C,haborder.png,1,z,Fri Sep 06 2024 09:52:07 GMT-0500 (Central Daylight Time),551160.3999999762,CFD-BM-041-048-A.jpg,1700,solid,O,z,901,9,1,46335.300000071526,504825.09999990463,7018,ATS,B,18
14,test,3,C,haborder.png,1,m,Fri Sep 06 2024 09:52:07 GMT-0500 (Central Daylight Time),553609.7999999523,CFD-BF-035-007-HC.jpg,1600,solid,O,m,817,10,1,48784.700000047684,504825.09999990463,7018,ATS,B,19
15,test,3,C,mfborder.png,1,z,Fri Sep 06 2024 09:52:07 GMT-0500 (Central Daylight Time),556575.5999999046,CFD-BF-051-043-A.jpg,1600,dash,O,z,1345,2,1,51750.5,504825.09999990463,7018,ATS,B,20
16,test,3,C,haborder.png,1,m,Fri Sep 06 2024 09:52:07 GMT-0500 (Central Daylight Time),559092.5,CFD-WF-027-007-HC.jpg,1500,solid,O,m,998,11,1,54267.40000009537,504825.09999990463,7018,ATS,B,21
17,test,3,C,mfborder.png,1,z,Fri Sep 06 2024 09:52:07 GMT-0500 (Central Daylight Time),561890.5999999046,CFD-BF-027-013-HC.jpg,1700,dash,O,z,1075,1,1,57065.5,504825.09999990463,7018,ATS,B,22
18,test,3,C,mfborder.png,1,m,Fri Sep 06 2024 09:52:07 GMT-0500 (Central Daylight Time),563673.2999999523,CFD-WM-012-007-HC.jpg,1000,dash,O,m,760,4,1,58848.200000047684,504825.09999990463,7018,ATS,B,23
19,test,3,C,mfborder.png,1,z,Fri Sep 06 2024 09:52:07 GMT-0500 (Central Daylight Time),566189.2999999523,CFD-WF-026-008-A.jpg,1500,dash,O,z,994,3,1,61364.200000047684,504825.09999990463,7018,ATS,B,24
1,test,4,C,mfborder.png,1,m,Fri Sep 06 2024 09:52:07 GMT-0500 (Central Daylight Time),571570.8999999762,CFD-WM-009-009-A.jpg,1200,dash,O,m,1133,6,1,2349.2000000476837,569221.6999999285,7018,ATS,B,1
2,test,4,C,haborder.png,1,m,Fri Sep 06 2024 09:52:07 GMT-0500 (Central Daylight Time),574120.0999999046,CFD-WM-011-006-HC.jpg,1500,solid,O,m,1020,11,1,4898.399999976158,569221.6999999285,7018,ATS,B,2
3,test,4,C,mfborder.png,1,z,Fri Sep 06 2024 09:52:07 GMT-0500 (Central Daylight Time),576452.6999999285,CFD-WF-013-015-A.jpg,1600,dash,O,z,705,2,1,7231.0,569221.6999999285,7018,ATS,B,3
4,test,4,C,mfborder.png,1,z,Fri Sep 06 2024 09:52:07 GMT-0500 (Central Daylight Time),578651.8999999762,CFD-WF-013-015-A.jpg,1600,dash,O,z,573,2,1,9430.200000047684,569221.6999999285,7018,ATS,B,4
5,test,4,C,mfborder.png,1,m,Fri Sep 06 2024 09:52:07 GMT-0500 (Central Daylight Time),581517.5,CFD-BM-037-041-A.jpg,2000,dash,O,m,846,5,1,12295.800000071526,569221.6999999285,7018,ATS,B,5
6,test,4,C,haborder.png,1,z,Fri Sep 06 2024 09:52:07 GMT-0500 (Central Daylight Time),584266.6999999285,CFD-BF-050-012-A.jpg,1900,solid,O,z,825,8,1,15045.0,569221.6999999285,7018,ATS,B,6
7,test,4,C,haborder.png,1,z,Fri Sep 06 2024 09:52:07 GMT-0500 (Central Daylight Time),586700.5,CFD-WF-026-008-A.jpg,1700,solid,O,z,714,9,1,17478.800000071526,569221.6999999285,7018,ATS,B,7
8,test,4,C,haborder.png,1,m,Fri Sep 06 2024 09:52:07 GMT-0500 (Central Daylight Time),588760.2999999523,CFD-WM-011-006-HC.jpg,1000,solid,O,m,898,12,1,19538.600000023842,569221.6999999285,7018,ATS,B,8
9,test,4,C,mfborder.png,1,m,Fri Sep 06 2024 09:52:07 GMT-0500 (Central Daylight Time),590748.0999999046,CFD-WM-009-009-A.jpg,1200,dash,O,m,773,6,1,21526.399999976158,569221.6999999285,7018,ATS,B,9
10,test,4,C,mfborder.png,1,z,Fri Sep 06 2024 09:52:07 GMT-0500 (Central Daylight Time),592930.7999999523,CFD-BF-035-007-HC.jpg,1500,dash,O,z,650,3,1,23709.100000023842,569221.6999999285,7018,ATS,B,10
11,test,4,C,mfborder.png,1,m,Fri Sep 06 2024 09:52:07 GMT-0500 (Central Daylight Time),594830.5,CFD-BM-015-017-HC.jpg,1000,dash,O,m,879,4,1,25608.800000071526,569221.6999999285,7018,ATS,B,11
12,test,4,C,mfborder.png,1,z,Fri Sep 06 2024 09:52:07 GMT-0500 (Central Daylight Time),596979.5999999046,CFD-BF-035-007-HC.jpg,1500,dash,O,z,624,3,1,27757.899999976158,569221.6999999285,7018,ATS,B,12
13,test,4,C,haborder.png,1,m,Fri Sep 06 2024 09:52:07 GMT-0500 (Central Daylight Time),598829.8999999762,CFD-WM-011-006-HC.jpg,1000,solid,O,m,830,12,1,29608.200000047684,569221.6999999285,7018,ATS,B,13
14,test,4,C,mfborder.png,1,z,Fri Sep 06 2024 09:52:07 GMT-0500 (Central Daylight Time),601561.5,CFD-WF-011-006-HC.jpg,1700,dash,O,z,1009,1,1,32339.800000071526,569221.6999999285,7018,ATS,B,14
15,test,4,C,haborder.png,1,z,Fri Sep 06 2024 09:52:07 GMT-0500 (Central Daylight Time),604010.6999999285,CFD-WF-026-008-A.jpg,1700,solid,O,z,733,9,1,34789.0,569221.6999999285,7018,ATS,B,15
16,test,4,C,haborder.png,1,z,Fri Sep 06 2024 09:52:07 GMT-0500 (Central Daylight Time),606243.3999999762,CFD-BF-051-043-A.jpg,1400,solid,O,z,807,7,1,37021.700000047684,569221.6999999285,7018,ATS,B,16
17,test,4,C,haborder.png,1,m,Fri Sep 06 2024 09:52:07 GMT-0500 (Central Daylight Time),608725.6999999285,CFD-WM-011-006-HC.jpg,1500,solid,O,m,955,11,1,39504.0,569221.6999999285,7018,ATS,B,17
18,test,4,C,mfborder.png,1,m,Fri Sep 06 2024 09:52:07 GMT-0500 (Central Daylight Time),611708.2999999523,CFD-BM-037-041-A.jpg,2000,dash,O,m,965,5,1,42486.60000002384,569221.6999999285,7018,ATS,B,18
19,test,4,C,mfborder.png,1,m,Fri Sep 06 2024 09:52:07 GMT-0500 (Central Daylight Time),613624.5999999046,CFD-BM-015-017-HC.jpg,1000,dash,O,m,885,4,1,44402.89999997616,569221.6999999285,7018,ATS,B,19
20,test,4,C,haborder.png,1,m,Fri Sep 06 2024 09:52:07 GMT-0500 (Central Daylight Time),616056.7999999523,CFD-BM-020-024-HC.jpg,1600,solid,O,m,809,10,1,46835.10000002384,569221.6999999285,7018,ATS,B,20
21,test,4,C,haborder.png,1,z,Fri Sep 06 2024 09:52:07 GMT-0500 (Central Daylight Time),618739.3999999762,CFD-BF-050-012-A.jpg,1900,solid,O,z,758,8,1,49517.700000047684,569221.6999999285,7018,ATS,B,21
21,test,4,C,haborder.png,0,m,Fri Sep 06 2024 09:52:07 GMT-0500 (Central Daylight Time),621105.2999999523,CFD-BM-020-024-HC.jpg,1600,solid,O,z,742,10,1,51883.60000002384,569221.6999999285,7018,ATS,B,22
22,test,4,C,mfborder.png,1,z,Fri Sep 06 2024 09:52:07 GMT-0500 (Central Daylight Time),623820.8999999762,CFD-WF-011-006-HC.jpg,1700,dash,O,z,989,1,1,54599.200000047684,569221.6999999285,7018,ATS,B,23
23,test,4,C,haborder.png,1,z,Fri Sep 06 2024 09:52:07 GMT-0500 (Central Daylight Time),626003.5999999046,CFD-BF-051-043-A.jpg,1400,solid,O,z,764,7,1,56781.89999997616,569221.6999999285,7018,ATS,B,24
